{
  "resourceType": "Bundle",
  "type": "transaction",
  "entry": [
    {
      "fullUrl": "urn:uuid:9ba16fd4-ac43-4764-89cc-f4e21f5cc2ef",
      "resource": {
        "resourceType": "Patient",
        "language": "en-US",
        "text": {
          "status": "generated",
          "div": "<div xmlns=\"http://www.w3.org/1999/xhtml\">{\n  &quot;resourceType&quot;: &quot;Patient&quot;,\n  &quot;language&quot;: &quot;en-US&quot;,\n  &quot;extension&quot;: [\n    {\n      &quot;url&quot;: &quot;http://hl7.org/fhir/us/core/StructureDefinition/us-core-birthsex&quot;,\n      &quot;valueCode&quot;: &quot;F&quot;\n    },\n    {\n      &quot;url&quot;: &quot;http://hl7.org/fhir/us/core/StructureDefinition/us-core-ethnicity&quot;,\n      &quot;extension&quot;: [\n        {\n          &quot;url&quot;: &quot;text&quot;,\n          &quot;valueString&quot;: &quot;Not Hispanic or Latino&quot;\n        }\n      ]\n    },\n    {\n      &quot;url&quot;: &quot;http://hl7.org/fhir/us/core/StructureDefinition/us-core-race&quot;,\n      &quot;extension&quot;: [\n        {\n          &quot;url&quot;: &quot;ombCategory&quot;,\n          &quot;valueCoding&quot;: {\n            &quot;system&quot;: &quot;urn:oid:2.16.840.1.113883.6.238&quot;,\n            &quot;code&quot;: &quot;2106-3&quot;,\n            &quot;display&quot;: &quot;White&quot;\n          }\n        },\n        {\n          &quot;url&quot;: &quot;text&quot;,\n          &quot;valueString&quot;: &quot;White&quot;\n        }\n      ]\n    }\n  ],\n  &quot;identifier&quot;: [\n    {\n      &quot;type&quot;: {\n        &quot;coding&quot;: [\n          {\n            &quot;system&quot;: &quot;http://terminology.hl7.org/CodeSystem/v2-0203&quot;,\n            &quot;code&quot;: &quot;PI&quot;,\n            &quot;display&quot;: &quot;Patient internal identifier&quot;\n          }\n        ]\n      },\n      &quot;system&quot;: &quot;http://namingsystem.org/&quot;,\n      &quot;value&quot;: &quot;5d7a3547-db22-4d95-bc71-f244c6cd5111c&quot;\n    }\n  ]\n}</div>"
        },
        "extension": [
          {
            "url": "http://hl7.org/fhir/us/core/StructureDefinition/us-core-birthsex",
            "valueCode": "F"
          },
          {
            "url": "http://hl7.org/fhir/us/core/StructureDefinition/us-core-ethnicity",
            "extension": [
              {
                "url": "text",
                "valueString": "Not Hispanic or Latino"
              }
            ]
          },
          {
            "url": "http://hl7.org/fhir/us/core/StructureDefinition/us-core-race",
            "extension": [
              {
                "url": "ombCategory",
                "valueCoding": {
                  "system": "urn:oid:2.16.840.1.113883.6.238",
                  "code": "2106-3",
                  "display": "White"
                }
              },
              {
                "url": "text",
                "valueString": "White"
              }
            ]
          }
        ],
        "identifier": [
          {
            "type": {
              "coding": [
                {
                  "system": "http://terminology.hl7.org/CodeSystem/v2-0203",
                  "code": "PI",
                  "display": "Patient internal identifier"
                }
              ]
            },
            "system": "http://namingsystem.org/",
            "value": "5d7a3547-db22-4d95-bc71-f244c6cd5111c"
          }
        ]
      },
      "request": {
        "method": "POST",
        "url": "Patient"
      }
    },
    {
      "fullUrl": "urn:uuid:b3170068-c175-4e9b-96e2-3beae1553ebe",
      "resource": {
        "resourceType": "Specimen",
        "meta": {
          "profile": [
            "http://hl7.org/fhir/uv/genomics-reporting/StructureDefinition/specimen"
          ]
        },
        "language": "en-US",
        "text": {
          "status": "generated",
          "div": "<div xmlns=\"http://www.w3.org/1999/xhtml\">{\n  &quot;resourceType&quot;: &quot;Specimen&quot;,\n  &quot;meta&quot;: {\n    &quot;profile&quot;: [\n      &quot;http://hl7.org/fhir/uv/genomics-reporting/StructureDefinition/specimen&quot;\n    ]\n  },\n  &quot;language&quot;: &quot;en-US&quot;,\n  &quot;identifier&quot;: [\n    {\n      &quot;system&quot;: &quot;http://namingsystem.org/&quot;,\n      &quot;value&quot;: &quot;5d7a3547-db22-4d95-bc71-f244c6cd5111c--specimen&quot;\n    }\n  ],\n  &quot;type&quot;: {\n    &quot;coding&quot;: [\n      {\n        &quot;system&quot;: &quot;http://snomed.info/sct&quot;,\n        &quot;code&quot;: &quot;258566005&quot;,\n        &quot;display&quot;: &quot;Deoxyribonucleic acid sample&quot;\n      }\n    ]\n  },\n  &quot;subject&quot;: {\n    &quot;reference&quot;: &quot;urn:uuid:9ba16fd4-ac43-4764-89cc-f4e21f5cc2ef&quot;\n  },\n  &quot;request&quot;: [\n    {\n      &quot;reference&quot;: &quot;urn:uuid:33d81ef9-823e-4201-867f-7838e5e76004&quot;\n    }\n  ]\n}</div>"
        },
        "identifier": [
          {
            "system": "http://namingsystem.org/",
            "value": "5d7a3547-db22-4d95-bc71-f244c6cd5111c--specimen"
          }
        ],
        "type": {
          "coding": [
            {
              "system": "http://snomed.info/sct",
              "code": "258566005",
              "display": "Deoxyribonucleic acid sample"
            }
          ]
        },
        "subject": {
          "reference": "urn:uuid:9ba16fd4-ac43-4764-89cc-f4e21f5cc2ef"
        },
        "request": [
          {
            "reference": "urn:uuid:33d81ef9-823e-4201-867f-7838e5e76004"
          }
        ]
      },
      "request": {
        "method": "POST",
        "url": "Specimen"
      }
    },
    {
      "fullUrl": "urn:uuid:33d81ef9-823e-4201-867f-7838e5e76004",
      "resource": {
        "resourceType": "ServiceRequest",
        "meta": {
          "profile": [
            "http://hl7.org/fhir/uv/genomics-reporting/StructureDefinition/servicerequest"
          ]
        },
        "language": "en-US",
        "text": {
          "status": "generated",
          "div": "<div xmlns=\"http://www.w3.org/1999/xhtml\">{\n  &quot;resourceType&quot;: &quot;ServiceRequest&quot;,\n  &quot;meta&quot;: {\n    &quot;profile&quot;: [\n      &quot;http://hl7.org/fhir/uv/genomics-reporting/StructureDefinition/servicerequest&quot;\n    ]\n  },\n  &quot;language&quot;: &quot;en-US&quot;,\n  &quot;identifier&quot;: [\n    {\n      &quot;system&quot;: &quot;http://namingsystem.org/&quot;,\n      &quot;value&quot;: &quot;5d7a3547-db22-4d95-bc71-f244c6cd5111c--serviceRequest&quot;\n    }\n  ],\n  &quot;instantiatesCanonical&quot;: [\n    &quot;urn:uuid:3294e5aa-40c9-41fe-8f91-6806b07818a1&quot;\n  ],\n  &quot;status&quot;: &quot;completed&quot;,\n  &quot;intent&quot;: &quot;filler-order&quot;,\n  &quot;category&quot;: [\n    {\n      &quot;coding&quot;: [\n        {\n          &quot;system&quot;: &quot;http://snomed.info/sct&quot;,\n          &quot;code&quot;: &quot;108252007&quot;,\n          &quot;display&quot;: &quot;Laboratory procedure&quot;\n        }\n      ]\n    }\n  ],\n  &quot;code&quot;: {\n    &quot;coding&quot;: [\n      {\n        &quot;system&quot;: &quot;https://namingsystem.org/lab-test-codes/&quot;,\n        &quot;code&quot;: &quot;emerge-seq-ngs-pnl&quot;,\n        &quot;display&quot;: &quot;eMERGE-Seq NGS Panel&quot;\n      }\n    ],\n    &quot;text&quot;: &quot;eMERGE-Seq Panel Sequencing Report&quot;\n  },\n  &quot;subject&quot;: {\n    &quot;reference&quot;: &quot;urn:uuid:9ba16fd4-ac43-4764-89cc-f4e21f5cc2ef&quot;\n  },\n  &quot;authoredOn&quot;: &quot;2020-04-17T00:00:00-05:00&quot;,\n  &quot;performerType&quot;: {\n    &quot;coding&quot;: [\n      {\n        &quot;system&quot;: &quot;http://snomed.info/sct&quot;,\n        &quot;code&quot;: &quot;310049001&quot;,\n        &quot;display&quot;: &quot;Clinical genetics service&quot;\n      }\n    ]\n  },\n  &quot;performer&quot;: [\n    {\n      &quot;reference&quot;: &quot;urn:uuid:918ac52b-7fb1-482e-883e-74cebf6ad766&quot;\n    }\n  ],\n  &quot;reasonCode&quot;: [\n    {\n      &quot;coding&quot;: [\n        {\n          &quot;system&quot;: &quot;http://namingsystem.org&quot;,\n          &quot;code&quot;: &quot;10093-7&quot;,\n          &quot;display&quot;: &quot;Not selected for trait&quot;\n        }\n      ]\n    }\n  ],\n  &quot;specimen&quot;: [\n    {\n      &quot;reference&quot;: &quot;urn:uuid:b3170068-c175-4e9b-96e2-3beae1553ebe&quot;\n    }\n  ]\n}</div>"
        },
        "identifier": [
          {
            "system": "http://namingsystem.org/",
            "value": "5d7a3547-db22-4d95-bc71-f244c6cd5111c--serviceRequest"
          }
        ],
        "instantiatesCanonical": [
          "urn:uuid:3294e5aa-40c9-41fe-8f91-6806b07818a1"
        ],
        "status": "completed",
        "intent": "filler-order",
        "category": [
          {
            "coding": [
              {
                "system": "http://snomed.info/sct",
                "code": "108252007",
                "display": "Laboratory procedure"
              }
            ]
          }
        ],
        "code": {
          "coding": [
            {
              "system": "https://namingsystem.org/lab-test-codes/",
              "code": "emerge-seq-ngs-pnl",
              "display": "eMERGE-Seq NGS Panel"
            }
          ],
          "text": "eMERGE-Seq Panel Sequencing Report"
        },
        "subject": {
          "reference": "urn:uuid:9ba16fd4-ac43-4764-89cc-f4e21f5cc2ef"
        },
        "authoredOn": "2020-04-17T00:00:00-05:00",
        "performerType": {
          "coding": [
            {
              "system": "http://snomed.info/sct",
              "code": "310049001",
              "display": "Clinical genetics service"
            }
          ]
        },
        "performer": [
          {
            "reference": "urn:uuid:918ac52b-7fb1-482e-883e-74cebf6ad766"
          }
        ],
        "reasonCode": [
          {
            "coding": [
              {
                "system": "http://namingsystem.org",
                "code": "10093-7",
                "display": "Not selected for trait"
              }
            ]
          }
        ],
        "specimen": [
          {
            "reference": "urn:uuid:b3170068-c175-4e9b-96e2-3beae1553ebe"
          }
        ]
      },
      "request": {
        "method": "POST",
        "url": "ServiceRequest"
      }
    },
    {
      "fullUrl": "urn:uuid:3196b69a-340b-4bfd-8960-3beda825b676",
      "resource": {
        "resourceType": "Observation",
        "meta": {
          "profile": [
            "http://hl7.org/fhir/uv/genomics-reporting/StructureDefinition/overall-interpretation"
          ]
        },
        "language": "en-US",
        "text": {
          "status": "generated",
          "div": "<div xmlns=\"http://www.w3.org/1999/xhtml\">{\n  &quot;resourceType&quot;: &quot;Observation&quot;,\n  &quot;meta&quot;: {\n    &quot;profile&quot;: [\n      &quot;http://hl7.org/fhir/uv/genomics-reporting/StructureDefinition/overall-interpretation&quot;\n    ]\n  },\n  &quot;language&quot;: &quot;en-US&quot;,\n  &quot;identifier&quot;: [\n    {\n      &quot;system&quot;: &quot;http://namingsystem.org/&quot;,\n      &quot;value&quot;: &quot;1587100000.54--overallInterpretation&quot;\n    }\n  ],\n  &quot;basedOn&quot;: [\n    {\n      &quot;reference&quot;: &quot;urn:uuid:33d81ef9-823e-4201-867f-7838e5e76004&quot;\n    }\n  ],\n  &quot;status&quot;: &quot;final&quot;,\n  &quot;category&quot;: [\n    {\n      &quot;coding&quot;: [\n        {\n          &quot;system&quot;: &quot;http://terminology.hl7.org/CodeSystem/observation-category&quot;,\n          &quot;code&quot;: &quot;laboratory&quot;,\n          &quot;display&quot;: &quot;Laboratory&quot;\n        }\n      ]\n    }\n  ],\n  &quot;code&quot;: {\n    &quot;coding&quot;: [\n      {\n        &quot;system&quot;: &quot;http://loinc.org&quot;,\n        &quot;code&quot;: &quot;51968-6&quot;,\n        &quot;display&quot;: &quot;Genetic disease analysis overall interpretation&quot;\n      }\n    ]\n  },\n  &quot;subject&quot;: {\n    &quot;reference&quot;: &quot;urn:uuid:9ba16fd4-ac43-4764-89cc-f4e21f5cc2ef&quot;\n  },\n  &quot;performer&quot;: [\n    {\n      &quot;reference&quot;: &quot;urn:uuid:918ac52b-7fb1-482e-883e-74cebf6ad766&quot;\n    }\n  ],\n  &quot;valueCodeableConcept&quot;: {\n    &quot;coding&quot;: [\n      {\n        &quot;system&quot;: &quot;http://loinc.org&quot;,\n        &quot;code&quot;: &quot;LA6576-8&quot;,\n        &quot;display&quot;: &quot;Positive&quot;\n      }\n    ]\n  },\n  &quot;specimen&quot;: {\n    &quot;reference&quot;: &quot;urn:uuid:b3170068-c175-4e9b-96e2-3beae1553ebe&quot;\n  },\n  &quot;derivedFrom&quot;: [\n    {\n      &quot;reference&quot;: &quot;urn:uuid:c851ad8a-bf71-4818-af0d-64c57c73043c&quot;\n    }\n  ]\n}</div>"
        },
        "identifier": [
          {
            "system": "http://namingsystem.org/",
            "value": "1587100000.54--overallInterpretation"
          }
        ],
        "basedOn": [
          {
            "reference": "urn:uuid:33d81ef9-823e-4201-867f-7838e5e76004"
          }
        ],
        "status": "final",
        "category": [
          {
            "coding": [
              {
                "system": "http://terminology.hl7.org/CodeSystem/observation-category",
                "code": "laboratory",
                "display": "Laboratory"
              }
            ]
          }
        ],
        "code": {
          "coding": [
            {
              "system": "http://loinc.org",
              "code": "51968-6",
              "display": "Genetic disease analysis overall interpretation"
            }
          ]
        },
        "subject": {
          "reference": "urn:uuid:9ba16fd4-ac43-4764-89cc-f4e21f5cc2ef"
        },
        "performer": [
          {
            "reference": "urn:uuid:918ac52b-7fb1-482e-883e-74cebf6ad766"
          }
        ],
        "valueCodeableConcept": {
          "coding": [
            {
              "system": "http://loinc.org",
              "code": "LA6576-8",
              "display": "Positive"
            }
          ]
        },
        "specimen": {
          "reference": "urn:uuid:b3170068-c175-4e9b-96e2-3beae1553ebe"
        },
        "derivedFrom": [
          {
            "reference": "urn:uuid:c851ad8a-bf71-4818-af0d-64c57c73043c"
          }
        ]
      },
      "request": {
        "method": "POST",
        "url": "Observation"
      }
    },
    {
      "fullUrl": "urn:uuid:ac08d209-5b7b-40f2-be9e-2ff4e5bf63b2",
      "resource": {
        "resourceType": "Observation",
        "meta": {
          "profile": [
            "http://hl7.org/fhir/uv/genomics-reporting/StructureDefinition/variant"
          ]
        },
        "language": "en-US",
        "text": {
          "status": "generated",
          "div": "<div xmlns=\"http://www.w3.org/1999/xhtml\">{\n  &quot;resourceType&quot;: &quot;Observation&quot;,\n  &quot;meta&quot;: {\n    &quot;profile&quot;: [\n      &quot;http://hl7.org/fhir/uv/genomics-reporting/StructureDefinition/variant&quot;\n    ]\n  },\n  &quot;language&quot;: &quot;en-US&quot;,\n  &quot;basedOn&quot;: [\n    {\n      &quot;reference&quot;: &quot;urn:uuid:33d81ef9-823e-4201-867f-7838e5e76004&quot;\n    }\n  ],\n  &quot;status&quot;: &quot;final&quot;,\n  &quot;category&quot;: [\n    {\n      &quot;coding&quot;: [\n        {\n          &quot;system&quot;: &quot;http://terminology.hl7.org/CodeSystem/observation-category&quot;,\n          &quot;code&quot;: &quot;laboratory&quot;,\n          &quot;display&quot;: &quot;Laboratory&quot;\n        }\n      ]\n    }\n  ],\n  &quot;code&quot;: {\n    &quot;coding&quot;: [\n      {\n        &quot;system&quot;: &quot;http://loinc.org&quot;,\n        &quot;code&quot;: &quot;69548-6&quot;,\n        &quot;display&quot;: &quot;Genetic variant assessment&quot;\n      }\n    ]\n  },\n  &quot;subject&quot;: {\n    &quot;reference&quot;: &quot;urn:uuid:9ba16fd4-ac43-4764-89cc-f4e21f5cc2ef&quot;\n  },\n  &quot;performer&quot;: [\n    {\n      &quot;reference&quot;: &quot;urn:uuid:918ac52b-7fb1-482e-883e-74cebf6ad766&quot;\n    }\n  ],\n  &quot;valueCodeableConcept&quot;: {\n    &quot;coding&quot;: [\n      {\n        &quot;system&quot;: &quot;http://loinc.org&quot;,\n        &quot;code&quot;: &quot;LA9633-4&quot;,\n        &quot;display&quot;: &quot;Present&quot;\n      }\n    ]\n  },\n  &quot;note&quot;: [\n    {\n      &quot;authorReference&quot;: {\n        &quot;reference&quot;: &quot;urn:uuid:918ac52b-7fb1-482e-883e-74cebf6ad766&quot;\n      },\n      &quot;text&quot;: &quot;PMID 16027248,16251899,16885183,25644172, 21098638; rs104893816; Confirmed by Sanger sequencing&quot;\n    }\n  ],\n  &quot;specimen&quot;: {\n    &quot;reference&quot;: &quot;urn:uuid:b3170068-c175-4e9b-96e2-3beae1553ebe&quot;\n  },\n  &quot;component&quot;: [\n    {\n      &quot;code&quot;: {\n        &quot;coding&quot;: [\n          {\n            &quot;system&quot;: &quot;http://loinc.org&quot;,\n            &quot;code&quot;: &quot;62374-4&quot;,\n            &quot;display&quot;: &quot;Human reference sequence assembly version&quot;\n          }\n        ]\n      },\n      &quot;valueCodeableConcept&quot;: {\n        &quot;coding&quot;: [\n          {\n            &quot;system&quot;: &quot;http://loinc.org&quot;,\n            &quot;code&quot;: &quot;LA14029-5&quot;,\n            &quot;display&quot;: &quot;GRCh37&quot;\n          }\n        ]\n      }\n    },\n    {\n      &quot;code&quot;: {\n        &quot;coding&quot;: [\n          {\n            &quot;system&quot;: &quot;http://loinc.org&quot;,\n            &quot;code&quot;: &quot;92822-6&quot;,\n            &quot;display&quot;: &quot;Genomic coordinate system [Type]&quot;\n          }\n        ]\n      },\n      &quot;valueCodeableConcept&quot;: {\n        &quot;coding&quot;: [\n          {\n            &quot;system&quot;: &quot;http://loinc.org&quot;,\n            &quot;code&quot;: &quot;LA30102-0&quot;,\n            &quot;display&quot;: &quot;1-based character counting&quot;\n          }\n        ]\n      }\n    },\n    {\n      &quot;code&quot;: {\n        &quot;coding&quot;: [\n          {\n            &quot;system&quot;: &quot;http://loinc.org&quot;,\n            &quot;code&quot;: &quot;48002-0&quot;,\n            &quot;display&quot;: &quot;Genomic source class [Type]&quot;\n          }\n        ]\n      },\n      &quot;valueCodeableConcept&quot;: {\n        &quot;coding&quot;: [\n          {\n            &quot;system&quot;: &quot;http://loinc.org&quot;,\n            &quot;code&quot;: &quot;LA6683-2&quot;,\n            &quot;display&quot;: &quot;Germline&quot;\n          }\n        ]\n      }\n    },\n    {\n      &quot;code&quot;: {\n        &quot;coding&quot;: [\n          {\n            &quot;system&quot;: &quot;http://loinc.org&quot;,\n            &quot;code&quot;: &quot;48000-4&quot;,\n            &quot;display&quot;: &quot;Chromosome, Blood or Tissue Specimen&quot;\n          }\n        ]\n      },\n      &quot;valueCodeableConcept&quot;: {\n        &quot;coding&quot;: [\n          {\n            &quot;system&quot;: &quot;http://loinc.org&quot;,\n            &quot;code&quot;: &quot;LA21256-5&quot;,\n            &quot;display&quot;: &quot;Chromosome 3&quot;\n          }\n        ]\n      }\n    },\n    {\n      &quot;code&quot;: {\n        &quot;coding&quot;: [\n          {\n            &quot;system&quot;: &quot;http://loinc.org&quot;,\n            &quot;code&quot;: &quot;69547-8&quot;,\n            &quot;display&quot;: &quot;Genomic ref allele [ID]&quot;\n          }\n        ]\n      },\n      &quot;valueString&quot;: &quot;G&quot;\n    },\n    {\n      &quot;code&quot;: {\n        &quot;coding&quot;: [\n          {\n            &quot;system&quot;: &quot;http://loinc.org&quot;,\n            &quot;code&quot;: &quot;69551-0&quot;,\n            &quot;display&quot;: &quot;Genomic alt allele [ID]&quot;\n          }\n        ]\n      },\n      &quot;valueString&quot;: &quot;A&quot;\n    },\n    {\n      &quot;code&quot;: {\n        &quot;coding&quot;: [\n          {\n            &quot;system&quot;: &quot;http://loinc.org&quot;,\n            &quot;code&quot;: &quot;81254-5&quot;,\n            &quot;display&quot;: &quot;Genomic allele start-end&quot;\n          }\n        ]\n      },\n      &quot;valueRange&quot;: {\n        &quot;low&quot;: {\n          &quot;value&quot;: 30715721\n        }\n      }\n    },\n    {\n      &quot;code&quot;: {\n        &quot;coding&quot;: [\n          {\n            &quot;system&quot;: &quot;http://loinc.org&quot;,\n            &quot;code&quot;: &quot;53034-5&quot;,\n            &quot;display&quot;: &quot;Allelic state&quot;\n          }\n        ]\n      },\n      &quot;valueCodeableConcept&quot;: {\n        &quot;coding&quot;: [\n          {\n            &quot;system&quot;: &quot;http://loinc.org&quot;,\n            &quot;code&quot;: &quot;LA6706-1&quot;,\n            &quot;display&quot;: &quot;Heterozygous&quot;\n          }\n        ]\n      }\n    },\n    {\n      &quot;code&quot;: {\n        &quot;coding&quot;: [\n          {\n            &quot;system&quot;: &quot;http://loinc.org&quot;,\n            &quot;code&quot;: &quot;48018-6&quot;,\n            &quot;display&quot;: &quot;Gene studied [ID]&quot;\n          }\n        ]\n      },\n      &quot;valueCodeableConcept&quot;: {\n        &quot;coding&quot;: [\n          {\n            &quot;system&quot;: &quot;http://www.genenames.org/geneId&quot;,\n            &quot;code&quot;: &quot;HGNC:795&quot;,\n            &quot;display&quot;: &quot;TGFBR2&quot;\n          }\n        ]\n      }\n    },\n    {\n      &quot;code&quot;: {\n        &quot;coding&quot;: [\n          {\n            &quot;system&quot;: &quot;http://loinc.org&quot;,\n            &quot;code&quot;: &quot;81290-9&quot;,\n            &quot;display&quot;: &quot;Genomic DNA change (gHGVS)&quot;\n          }\n        ]\n      },\n      &quot;valueCodeableConcept&quot;: {\n        &quot;coding&quot;: [\n          {\n            &quot;system&quot;: &quot;http://varnomen.hgvs.org/&quot;,\n            &quot;code&quot;: &quot;g.30715721G&gt;A&quot;,\n            &quot;display&quot;: &quot;g.30715721G&gt;A&quot;\n          }\n        ]\n      }\n    },\n    {\n      &quot;code&quot;: {\n        &quot;coding&quot;: [\n          {\n            &quot;system&quot;: &quot;http://loinc.org&quot;,\n            &quot;code&quot;: &quot;51958-7&quot;,\n            &quot;display&quot;: &quot;Transcript reference sequence [ID]&quot;\n          }\n        ]\n      },\n      &quot;valueCodeableConcept&quot;: {\n        &quot;coding&quot;: [\n          {\n            &quot;system&quot;: &quot;https://www.ncbi.nlm.nih.gov/nuccore&quot;,\n            &quot;code&quot;: &quot;NM_001024847&quot;,\n            &quot;display&quot;: &quot;NM_001024847&quot;\n          }\n        ]\n      }\n    },\n    {\n      &quot;code&quot;: {\n        &quot;coding&quot;: [\n          {\n            &quot;system&quot;: &quot;http://loinc.org&quot;,\n            &quot;code&quot;: &quot;48004-6&quot;,\n            &quot;display&quot;: &quot;DNA change (c.HGVS)&quot;\n          }\n        ]\n      },\n      &quot;valueCodeableConcept&quot;: {\n        &quot;coding&quot;: [\n          {\n            &quot;system&quot;: &quot;http://varnomen.hgvs.org&quot;,\n            &quot;code&quot;: &quot;c.1454G&gt;A&quot;,\n            &quot;display&quot;: &quot;c.1454G&gt;A&quot;\n          }\n        ]\n      }\n    },\n    {\n      &quot;code&quot;: {\n        &quot;coding&quot;: [\n          {\n            &quot;system&quot;: &quot;http://loinc.org&quot;,\n            &quot;code&quot;: &quot;79742-3&quot;,\n            &quot;display&quot;: &quot;Inheritance pattern based on family history&quot;\n          }\n        ]\n      },\n      &quot;valueCodeableConcept&quot;: {\n        &quot;coding&quot;: [\n          {\n            &quot;system&quot;: &quot;http://loinc.org&quot;,\n            &quot;code&quot;: &quot;LA24640-7&quot;,\n            &quot;display&quot;: &quot;Autosomal dominant&quot;\n          }\n        ]\n      }\n    },\n    {\n      &quot;code&quot;: {\n        &quot;coding&quot;: [\n          {\n            &quot;system&quot;: &quot;http://loinc.org&quot;,\n            &quot;code&quot;: &quot;48005-3&quot;,\n            &quot;display&quot;: &quot;Amino acid change (pHGVS)&quot;\n          }\n        ]\n      },\n      &quot;valueCodeableConcept&quot;: {\n        &quot;coding&quot;: [\n          {\n            &quot;system&quot;: &quot;http://varnomen.hgvs.org/&quot;,\n            &quot;code&quot;: &quot;p.Arg485His&quot;,\n            &quot;display&quot;: &quot;p.Arg485His&quot;\n          }\n        ]\n      }\n    }\n  ]\n}</div>"
        },
        "basedOn": [
          {
            "reference": "urn:uuid:33d81ef9-823e-4201-867f-7838e5e76004"
          }
        ],
        "status": "final",
        "category": [
          {
            "coding": [
              {
                "system": "http://terminology.hl7.org/CodeSystem/observation-category",
                "code": "laboratory",
                "display": "Laboratory"
              }
            ]
          }
        ],
        "code": {
          "coding": [
            {
              "system": "http://loinc.org",
              "code": "69548-6",
              "display": "Genetic variant assessment"
            }
          ]
        },
        "subject": {
          "reference": "urn:uuid:9ba16fd4-ac43-4764-89cc-f4e21f5cc2ef"
        },
        "performer": [
          {
            "reference": "urn:uuid:918ac52b-7fb1-482e-883e-74cebf6ad766"
          }
        ],
        "valueCodeableConcept": {
          "coding": [
            {
              "system": "http://loinc.org",
              "code": "LA9633-4",
              "display": "Present"
            }
          ]
        },
        "note": [
          {
            "authorReference": {
              "reference": "urn:uuid:918ac52b-7fb1-482e-883e-74cebf6ad766"
            },
            "text": "PMID 16027248,16251899,16885183,25644172, 21098638; rs104893816; Confirmed by Sanger sequencing"
          }
        ],
        "specimen": {
          "reference": "urn:uuid:b3170068-c175-4e9b-96e2-3beae1553ebe"
        },
        "component": [
          {
            "code": {
              "coding": [
                {
                  "system": "http://loinc.org",
                  "code": "62374-4",
                  "display": "Human reference sequence assembly version"
                }
              ]
            },
            "valueCodeableConcept": {
              "coding": [
                {
                  "system": "http://loinc.org",
                  "code": "LA14029-5",
                  "display": "GRCh37"
                }
              ]
            }
          },
          {
            "code": {
              "coding": [
                {
                  "system": "http://loinc.org",
                  "code": "92822-6",
                  "display": "Genomic coordinate system [Type]"
                }
              ]
            },
            "valueCodeableConcept": {
              "coding": [
                {
                  "system": "http://loinc.org",
                  "code": "LA30102-0",
                  "display": "1-based character counting"
                }
              ]
            }
          },
          {
            "code": {
              "coding": [
                {
                  "system": "http://loinc.org",
                  "code": "48002-0",
                  "display": "Genomic source class [Type]"
                }
              ]
            },
            "valueCodeableConcept": {
              "coding": [
                {
                  "system": "http://loinc.org",
                  "code": "LA6683-2",
                  "display": "Germline"
                }
              ]
            }
          },
          {
            "code": {
              "coding": [
                {
                  "system": "http://loinc.org",
                  "code": "48000-4",
                  "display": "Chromosome, Blood or Tissue Specimen"
                }
              ]
            },
            "valueCodeableConcept": {
              "coding": [
                {
                  "system": "http://loinc.org",
                  "code": "LA21256-5",
                  "display": "Chromosome 3"
                }
              ]
            }
          },
          {
            "code": {
              "coding": [
                {
                  "system": "http://loinc.org",
                  "code": "69547-8",
                  "display": "Genomic ref allele [ID]"
                }
              ]
            },
            "valueString": "G"
          },
          {
            "code": {
              "coding": [
                {
                  "system": "http://loinc.org",
                  "code": "69551-0",
                  "display": "Genomic alt allele [ID]"
                }
              ]
            },
            "valueString": "A"
          },
          {
            "code": {
              "coding": [
                {
                  "system": "http://loinc.org",
                  "code": "81254-5",
                  "display": "Genomic allele start-end"
                }
              ]
            },
            "valueRange": {
              "low": {
                "value": 30715721
              }
            }
          },
          {
            "code": {
              "coding": [
                {
                  "system": "http://loinc.org",
                  "code": "53034-5",
                  "display": "Allelic state"
                }
              ]
            },
            "valueCodeableConcept": {
              "coding": [
                {
                  "system": "http://loinc.org",
                  "code": "LA6706-1",
                  "display": "Heterozygous"
                }
              ]
            }
          },
          {
            "code": {
              "coding": [
                {
                  "system": "http://loinc.org",
                  "code": "48018-6",
                  "display": "Gene studied [ID]"
                }
              ]
            },
            "valueCodeableConcept": {
              "coding": [
                {
                  "system": "http://www.genenames.org/geneId",
                  "code": "HGNC:795",
                  "display": "TGFBR2"
                }
              ]
            }
          },
          {
            "code": {
              "coding": [
                {
                  "system": "http://loinc.org",
                  "code": "81290-9",
                  "display": "Genomic DNA change (gHGVS)"
                }
              ]
            },
            "valueCodeableConcept": {
              "coding": [
                {
                  "system": "http://varnomen.hgvs.org/",
                  "code": "g.30715721G>A",
                  "display": "g.30715721G>A"
                }
              ]
            }
          },
          {
            "code": {
              "coding": [
                {
                  "system": "http://loinc.org",
                  "code": "51958-7",
                  "display": "Transcript reference sequence [ID]"
                }
              ]
            },
            "valueCodeableConcept": {
              "coding": [
                {
                  "system": "https://www.ncbi.nlm.nih.gov/nuccore",
                  "code": "NM_001024847",
                  "display": "NM_001024847"
                }
              ]
            }
          },
          {
            "code": {
              "coding": [
                {
                  "system": "http://loinc.org",
                  "code": "48004-6",
                  "display": "DNA change (c.HGVS)"
                }
              ]
            },
            "valueCodeableConcept": {
              "coding": [
                {
                  "system": "http://varnomen.hgvs.org",
                  "code": "c.1454G>A",
                  "display": "c.1454G>A"
                }
              ]
            }
          },
          {
            "code": {
              "coding": [
                {
                  "system": "http://loinc.org",
                  "code": "79742-3",
                  "display": "Inheritance pattern based on family history"
                }
              ]
            },
            "valueCodeableConcept": {
              "coding": [
                {
                  "system": "http://loinc.org",
                  "code": "LA24640-7",
                  "display": "Autosomal dominant"
                }
              ]
            }
          },
          {
            "code": {
              "coding": [
                {
                  "system": "http://loinc.org",
                  "code": "48005-3",
                  "display": "Amino acid change (pHGVS)"
                }
              ]
            },
            "valueCodeableConcept": {
              "coding": [
                {
                  "system": "http://varnomen.hgvs.org/",
                  "code": "p.Arg485His",
                  "display": "p.Arg485His"
                }
              ]
            }
          }
        ]
      },
      "request": {
        "method": "POST",
        "url": "Observation"
      }
    },
    {
      "fullUrl": "urn:uuid:c851ad8a-bf71-4818-af0d-64c57c73043c",
      "resource": {
        "resourceType": "Observation",
        "meta": {
          "profile": [
            "http://hl7.org/fhir/uv/genomics-reporting/StructureDefinition/inherited-disease-pathogenicity"
          ]
        },
        "language": "en-US",
        "text": {
          "status": "generated",
          "div": "<div xmlns=\"http://www.w3.org/1999/xhtml\">{\n  &quot;resourceType&quot;: &quot;Observation&quot;,\n  &quot;meta&quot;: {\n    &quot;profile&quot;: [\n      &quot;http://hl7.org/fhir/uv/genomics-reporting/StructureDefinition/inherited-disease-pathogenicity&quot;\n    ]\n  },\n  &quot;language&quot;: &quot;en-US&quot;,\n  &quot;extension&quot;: [\n    {\n      &quot;url&quot;: &quot;http://hl7.org/fhir/StructureDefinition/observation-secondaryFinding&quot;,\n      &quot;valueCodeableConcept&quot;: {\n        &quot;text&quot;: &quot;See methodology for details.&quot;\n      }\n    },\n    {\n      &quot;url&quot;: &quot;http://namingsystem.org/fhir/StructureDefinition/interpretation-summary-text&quot;,\n      &quot;valueString&quot;: &quot;A heterozygous c.1454G&gt;A (p.Arg485His) pathogenic variant in the TGFBR2 (NM_001024847) gene was detected in this individual, which was confirmed by Sanger sequencing. Defects in TGFBR2 are the cause of Loeys-Dietz syndrome 2 (LDS2) [MIM 610168], an autosomal dominant aortic aneurysm syndrome with widespread systemic involvement, characterized by arterial tortuosity and aneurysms, hypertelorism, and bifid uvula or cleft palate. Physical findings include prominent joint laxity, easy bruising, wide and atrophic scars, velvety and translucent skin with easily visible veins, spontaneous rupture of the spleen or bowel, and catastrophic complications of pregnancy, including rupture of the gravid uterus and the arteries, either during pregnancy or in the immediate postpartum period. The cumulative risk of aortic dissection ia 100% by age 90 years [Genereviews  NBK1120]. Some patients have craniosynostosis, exotropy, micrognathia and retrognathia, structural brain abnormalities, and intellectual deficit. The c.1454G&gt;A (p.Arg485His) variant in the TGFBR2 gene has been reported in multiple unrelated families affected with Thoracic Aortic Aneurysm and Dissection (PMID 16027248,16251899, 16885183, 25644172) and segregates with disease in some of the families (PMID 16027248, 16885183). In vitro analysis showed this variant results in severely compromised internalization of the TGF-beta RII protein (PMID 21098638). Multiple in silico algorithms predicted this p.Arg485His change to be deleterious. Therefore, this c.1454G&gt;A (p.Arg485His) variant in the TGFBR2 gene is classified as pathogenic. Close relatives such as parents, siblings, and children have up to a 50% chance of having the same variant(s) as this individual. Parental testing may clarify the inheritance of this variant and may inform recurrence risk.&quot;\n    }\n  ],\n  &quot;basedOn&quot;: [\n    {\n      &quot;reference&quot;: &quot;urn:uuid:33d81ef9-823e-4201-867f-7838e5e76004&quot;\n    }\n  ],\n  &quot;status&quot;: &quot;final&quot;,\n  &quot;category&quot;: [\n    {\n      &quot;coding&quot;: [\n        {\n          &quot;system&quot;: &quot;http://terminology.hl7.org/CodeSystem/observation-category&quot;,\n          &quot;code&quot;: &quot;laboratory&quot;,\n          &quot;display&quot;: &quot;Laboratory&quot;\n        }\n      ]\n    }\n  ],\n  &quot;code&quot;: {\n    &quot;coding&quot;: [\n      {\n        &quot;system&quot;: &quot;http://loinc.org&quot;,\n        &quot;code&quot;: &quot;53037-8&quot;,\n        &quot;display&quot;: &quot;Genetic variation clinical significance&quot;\n      }\n    ]\n  },\n  &quot;subject&quot;: {\n    &quot;reference&quot;: &quot;urn:uuid:9ba16fd4-ac43-4764-89cc-f4e21f5cc2ef&quot;\n  },\n  &quot;performer&quot;: [\n    {\n      &quot;reference&quot;: &quot;urn:uuid:918ac52b-7fb1-482e-883e-74cebf6ad766&quot;\n    }\n  ],\n  &quot;valueCodeableConcept&quot;: {\n    &quot;coding&quot;: [\n      {\n        &quot;system&quot;: &quot;http://loinc.org&quot;,\n        &quot;code&quot;: &quot;LA6668-3&quot;,\n        &quot;display&quot;: &quot;Pathogenic&quot;\n      }\n    ]\n  },\n  &quot;note&quot;: [\n    {\n      &quot;text&quot;: &quot;PMID 16027248,16251899,16885183,25644172, 21098638; rs104893816; Confirmed by Sanger sequencing&quot;\n    }\n  ],\n  &quot;specimen&quot;: {\n    &quot;reference&quot;: &quot;urn:uuid:b3170068-c175-4e9b-96e2-3beae1553ebe&quot;\n  },\n  &quot;derivedFrom&quot;: [\n    {\n      &quot;reference&quot;: &quot;urn:uuid:ac08d209-5b7b-40f2-be9e-2ff4e5bf63b2&quot;\n    }\n  ],\n  &quot;component&quot;: [\n    {\n      &quot;code&quot;: {\n        &quot;coding&quot;: [\n          {\n            &quot;system&quot;: &quot;http://loinc.org&quot;,\n            &quot;code&quot;: &quot;81259-4&quot;,\n            &quot;display&quot;: &quot;Associated Phenotype&quot;\n          }\n        ]\n      },\n      &quot;valueCodeableConcept&quot;: {\n        &quot;coding&quot;: [\n          {\n            &quot;system&quot;: &quot;https://omim.org/&quot;,\n            &quot;code&quot;: &quot;610168&quot;,\n            &quot;display&quot;: &quot;Loeys-Dietz syndrome 2&quot;\n          }\n        ]\n      }\n    }\n  ]\n}</div>"
        },
        "extension": [
          {
            "url": "http://hl7.org/fhir/StructureDefinition/observation-secondaryFinding",
            "valueCodeableConcept": {
              "text": "See methodology for details."
            }
          },
          {
            "url": "http://namingsystem.org/fhir/StructureDefinition/interpretation-summary-text",
            "valueString": "A heterozygous c.1454G>A (p.Arg485His) pathogenic variant in the TGFBR2 (NM_001024847) gene was detected in this individual, which was confirmed by Sanger sequencing. Defects in TGFBR2 are the cause of Loeys-Dietz syndrome 2 (LDS2) [MIM 610168], an autosomal dominant aortic aneurysm syndrome with widespread systemic involvement, characterized by arterial tortuosity and aneurysms, hypertelorism, and bifid uvula or cleft palate. Physical findings include prominent joint laxity, easy bruising, wide and atrophic scars, velvety and translucent skin with easily visible veins, spontaneous rupture of the spleen or bowel, and catastrophic complications of pregnancy, including rupture of the gravid uterus and the arteries, either during pregnancy or in the immediate postpartum period. The cumulative risk of aortic dissection ia 100% by age 90 years [Genereviews  NBK1120]. Some patients have craniosynostosis, exotropy, micrognathia and retrognathia, structural brain abnormalities, and intellectual deficit. The c.1454G>A (p.Arg485His) variant in the TGFBR2 gene has been reported in multiple unrelated families affected with Thoracic Aortic Aneurysm and Dissection (PMID 16027248,16251899, 16885183, 25644172) and segregates with disease in some of the families (PMID 16027248, 16885183). In vitro analysis showed this variant results in severely compromised internalization of the TGF-beta RII protein (PMID 21098638). Multiple in silico algorithms predicted this p.Arg485His change to be deleterious. Therefore, this c.1454G>A (p.Arg485His) variant in the TGFBR2 gene is classified as pathogenic. Close relatives such as parents, siblings, and children have up to a 50% chance of having the same variant(s) as this individual. Parental testing may clarify the inheritance of this variant and may inform recurrence risk."
          }
        ],
        "basedOn": [
          {
            "reference": "urn:uuid:33d81ef9-823e-4201-867f-7838e5e76004"
          }
        ],
        "status": "final",
        "category": [
          {
            "coding": [
              {
                "system": "http://terminology.hl7.org/CodeSystem/observation-category",
                "code": "laboratory",
                "display": "Laboratory"
              }
            ]
          }
        ],
        "code": {
          "coding": [
            {
              "system": "http://loinc.org",
              "code": "53037-8",
              "display": "Genetic variation clinical significance"
            }
          ]
        },
        "subject": {
          "reference": "urn:uuid:9ba16fd4-ac43-4764-89cc-f4e21f5cc2ef"
        },
        "performer": [
          {
            "reference": "urn:uuid:918ac52b-7fb1-482e-883e-74cebf6ad766"
          }
        ],
        "valueCodeableConcept": {
          "coding": [
            {
              "system": "http://loinc.org",
              "code": "LA6668-3",
              "display": "Pathogenic"
            }
          ]
        },
        "note": [
          {
            "text": "PMID 16027248,16251899,16885183,25644172, 21098638; rs104893816; Confirmed by Sanger sequencing"
          }
        ],
        "specimen": {
          "reference": "urn:uuid:b3170068-c175-4e9b-96e2-3beae1553ebe"
        },
        "derivedFrom": [
          {
            "reference": "urn:uuid:ac08d209-5b7b-40f2-be9e-2ff4e5bf63b2"
          }
        ],
        "component": [
          {
            "code": {
              "coding": [
                {
                  "system": "http://loinc.org",
                  "code": "81259-4",
                  "display": "Associated Phenotype"
                }
              ]
            },
            "valueCodeableConcept": {
              "coding": [
                {
                  "system": "https://omim.org/",
                  "code": "610168",
                  "display": "Loeys-Dietz syndrome 2"
                }
              ]
            }
          }
        ]
      },
      "request": {
        "method": "POST",
        "url": "Observation"
      }
    },
    {
      "fullUrl": "urn:uuid:dd094f6c-369b-422d-a150-95cbde848e80",
      "resource": {
        "resourceType": "Observation",
        "language": "en-US",
        "text": {
          "status": "generated",
          "div": "<div xmlns=\"http://www.w3.org/1999/xhtml\">{\n  &quot;resourceType&quot;: &quot;Observation&quot;,\n  &quot;language&quot;: &quot;en-US&quot;,\n  &quot;status&quot;: &quot;final&quot;,\n  &quot;code&quot;: {\n    &quot;coding&quot;: [\n      {\n        &quot;system&quot;: &quot;http://loinc.org&quot;,\n        &quot;code&quot;: &quot;86467-8&quot;,\n        &quot;display&quot;: &quot;Report comment&quot;\n      }\n    ]\n  },\n  &quot;subject&quot;: {\n    &quot;reference&quot;: &quot;urn:uuid:9ba16fd4-ac43-4764-89cc-f4e21f5cc2ef&quot;\n  },\n  &quot;performer&quot;: [\n    {\n      &quot;reference&quot;: &quot;urn:uuid:918ac52b-7fb1-482e-883e-74cebf6ad766&quot;\n    }\n  ]\n}</div>"
        },
        "status": "final",
        "code": {
          "coding": [
            {
              "system": "http://loinc.org",
              "code": "86467-8",
              "display": "Report comment"
            }
          ]
        },
        "subject": {
          "reference": "urn:uuid:9ba16fd4-ac43-4764-89cc-f4e21f5cc2ef"
        },
        "performer": [
          {
            "reference": "urn:uuid:918ac52b-7fb1-482e-883e-74cebf6ad766"
          }
        ]
      },
      "request": {
        "method": "POST",
        "url": "Observation"
      }
    },
    {
      "fullUrl": "urn:uuid:dfba6dd8-82c7-48a8-81e0-55c6c39890b4",
      "resource": {
        "resourceType": "Observation",
        "meta": {
          "profile": [
            "http://hl7.org/fhir/uv/genomics-reporting/StructureDefinition/grouper"
          ]
        },
        "language": "en-US",
        "text": {
          "status": "generated",
          "div": "<div xmlns=\"http://www.w3.org/1999/xhtml\">{\n  &quot;resourceType&quot;: &quot;Observation&quot;,\n  &quot;meta&quot;: {\n    &quot;profile&quot;: [\n      &quot;http://hl7.org/fhir/uv/genomics-reporting/StructureDefinition/grouper&quot;\n    ]\n  },\n  &quot;language&quot;: &quot;en-US&quot;,\n  &quot;basedOn&quot;: [\n    {\n      &quot;reference&quot;: &quot;urn:uuid:33d81ef9-823e-4201-867f-7838e5e76004&quot;\n    }\n  ],\n  &quot;status&quot;: &quot;final&quot;,\n  &quot;category&quot;: [\n    {\n      &quot;coding&quot;: [\n        {\n          &quot;system&quot;: &quot;http://terminology.hl7.org/CodeSystem/observation-category&quot;,\n          &quot;code&quot;: &quot;laboratory&quot;,\n          &quot;display&quot;: &quot;Laboratory&quot;\n        }\n      ]\n    }\n  ],\n  &quot;code&quot;: {\n    &quot;coding&quot;: [\n      {\n        &quot;system&quot;: &quot;http://hl7.org/fhir/uv/genomics-reporting/CodeSystem/tbd-codes&quot;,\n        &quot;code&quot;: &quot;grouper&quot;\n      }\n    ]\n  },\n  &quot;subject&quot;: {\n    &quot;reference&quot;: &quot;urn:uuid:9ba16fd4-ac43-4764-89cc-f4e21f5cc2ef&quot;\n  },\n  &quot;performer&quot;: [\n    {\n      &quot;reference&quot;: &quot;urn:uuid:918ac52b-7fb1-482e-883e-74cebf6ad766&quot;\n    }\n  ],\n  &quot;specimen&quot;: {\n    &quot;reference&quot;: &quot;urn:uuid:b3170068-c175-4e9b-96e2-3beae1553ebe&quot;\n  },\n  &quot;hasMember&quot;: [\n    {\n      &quot;reference&quot;: &quot;urn:uuid:ac08d209-5b7b-40f2-be9e-2ff4e5bf63b2&quot;\n    },\n    {\n      &quot;reference&quot;: &quot;urn:uuid:c851ad8a-bf71-4818-af0d-64c57c73043c&quot;\n    },\n    {\n      &quot;reference&quot;: &quot;urn:uuid:3196b69a-340b-4bfd-8960-3beda825b676&quot;\n    }\n  ]\n}</div>"
        },
        "basedOn": [
          {
            "reference": "urn:uuid:33d81ef9-823e-4201-867f-7838e5e76004"
          }
        ],
        "status": "final",
        "category": [
          {
            "coding": [
              {
                "system": "http://terminology.hl7.org/CodeSystem/observation-category",
                "code": "laboratory",
                "display": "Laboratory"
              }
            ]
          }
        ],
        "code": {
          "coding": [
            {
              "system": "http://hl7.org/fhir/uv/genomics-reporting/CodeSystem/tbd-codes",
              "code": "grouper"
            }
          ]
        },
        "subject": {
          "reference": "urn:uuid:9ba16fd4-ac43-4764-89cc-f4e21f5cc2ef"
        },
        "performer": [
          {
            "reference": "urn:uuid:918ac52b-7fb1-482e-883e-74cebf6ad766"
          }
        ],
        "specimen": {
          "reference": "urn:uuid:b3170068-c175-4e9b-96e2-3beae1553ebe"
        },
        "hasMember": [
          {
            "reference": "urn:uuid:ac08d209-5b7b-40f2-be9e-2ff4e5bf63b2"
          },
          {
            "reference": "urn:uuid:c851ad8a-bf71-4818-af0d-64c57c73043c"
          },
          {
            "reference": "urn:uuid:3196b69a-340b-4bfd-8960-3beda825b676"
          }
        ]
      },
      "request": {
        "method": "POST",
        "url": "Observation"
      }
    },
    {
      "fullUrl": "urn:uuid:e5c23d09-7b67-4d62-8701-fe898e273169",
      "resource": {
        "resourceType": "Observation",
        "meta": {
          "profile": [
            "http://hl7.org/fhir/uv/genomics-reporting/StructureDefinition/grouper"
          ]
        },
        "language": "en-US",
        "text": {
          "status": "generated",
          "div": "<div xmlns=\"http://www.w3.org/1999/xhtml\">{\n  &quot;resourceType&quot;: &quot;Observation&quot;,\n  &quot;meta&quot;: {\n    &quot;profile&quot;: [\n      &quot;http://hl7.org/fhir/uv/genomics-reporting/StructureDefinition/grouper&quot;\n    ]\n  },\n  &quot;language&quot;: &quot;en-US&quot;,\n  &quot;basedOn&quot;: [\n    {\n      &quot;reference&quot;: &quot;urn:uuid:33d81ef9-823e-4201-867f-7838e5e76004&quot;\n    }\n  ],\n  &quot;status&quot;: &quot;final&quot;,\n  &quot;category&quot;: [\n    {\n      &quot;coding&quot;: [\n        {\n          &quot;system&quot;: &quot;http://terminology.hl7.org/CodeSystem/observation-category&quot;,\n          &quot;code&quot;: &quot;laboratory&quot;,\n          &quot;display&quot;: &quot;Laboratory&quot;\n        }\n      ]\n    }\n  ],\n  &quot;code&quot;: {\n    &quot;coding&quot;: [\n      {\n        &quot;system&quot;: &quot;http://hl7.org/fhir/uv/genomics-reporting/CodeSystem/tbd-codes&quot;,\n        &quot;code&quot;: &quot;grouper&quot;\n      }\n    ]\n  },\n  &quot;subject&quot;: {\n    &quot;reference&quot;: &quot;urn:uuid:9ba16fd4-ac43-4764-89cc-f4e21f5cc2ef&quot;\n  },\n  &quot;performer&quot;: [\n    {\n      &quot;reference&quot;: &quot;urn:uuid:918ac52b-7fb1-482e-883e-74cebf6ad766&quot;\n    }\n  ],\n  &quot;specimen&quot;: {\n    &quot;reference&quot;: &quot;urn:uuid:b3170068-c175-4e9b-96e2-3beae1553ebe&quot;\n  },\n  &quot;hasMember&quot;: [\n    {\n      &quot;reference&quot;: &quot;urn:uuid:2db5a243-5f97-4c7f-b3c0-2ef6180213a4&quot;\n    },\n    {\n      &quot;reference&quot;: &quot;urn:uuid:dbce9863-1c1e-4b71-adea-480527d99210&quot;\n    },\n    {\n      &quot;reference&quot;: &quot;urn:uuid:531ce4cf-bf76-4e94-90bd-8048fcc7d7fb&quot;\n    },\n    {\n      &quot;reference&quot;: &quot;urn:uuid:1b08e77f-b8cf-4e35-ad31-f50b15c2cc27&quot;\n    },\n    {\n      &quot;reference&quot;: &quot;urn:uuid:8c097d45-413b-4547-8aa7-d4ed9e4ad701&quot;\n    },\n    {\n      &quot;reference&quot;: &quot;urn:uuid:b9333827-8a09-4750-8ae1-f3c50360d94a&quot;\n    }\n  ]\n}</div>"
        },
        "basedOn": [
          {
            "reference": "urn:uuid:33d81ef9-823e-4201-867f-7838e5e76004"
          }
        ],
        "status": "final",
        "category": [
          {
            "coding": [
              {
                "system": "http://terminology.hl7.org/CodeSystem/observation-category",
                "code": "laboratory",
                "display": "Laboratory"
              }
            ]
          }
        ],
        "code": {
          "coding": [
            {
              "system": "http://hl7.org/fhir/uv/genomics-reporting/CodeSystem/tbd-codes",
              "code": "grouper"
            }
          ]
        },
        "subject": {
          "reference": "urn:uuid:9ba16fd4-ac43-4764-89cc-f4e21f5cc2ef"
        },
        "performer": [
          {
            "reference": "urn:uuid:918ac52b-7fb1-482e-883e-74cebf6ad766"
          }
        ],
        "specimen": {
          "reference": "urn:uuid:b3170068-c175-4e9b-96e2-3beae1553ebe"
        },
        "hasMember": [
          {
            "reference": "urn:uuid:2db5a243-5f97-4c7f-b3c0-2ef6180213a4"
          },
          {
            "reference": "urn:uuid:dbce9863-1c1e-4b71-adea-480527d99210"
          },
          {
            "reference": "urn:uuid:531ce4cf-bf76-4e94-90bd-8048fcc7d7fb"
          },
          {
            "reference": "urn:uuid:1b08e77f-b8cf-4e35-ad31-f50b15c2cc27"
          },
          {
            "reference": "urn:uuid:8c097d45-413b-4547-8aa7-d4ed9e4ad701"
          },
          {
            "reference": "urn:uuid:b9333827-8a09-4750-8ae1-f3c50360d94a"
          }
        ]
      },
      "request": {
        "method": "POST",
        "url": "Observation"
      }
    },
    {
      "fullUrl": "urn:uuid:2db5a243-5f97-4c7f-b3c0-2ef6180213a4",
      "resource": {
        "resourceType": "Observation",
        "meta": {
          "profile": [
            "http://hl7.org/fhir/uv/genomics-reporting/StructureDefinition/medication-metabolism"
          ]
        },
        "language": "en-US",
        "text": {
          "status": "generated",
          "div": "<div xmlns=\"http://www.w3.org/1999/xhtml\">{\n  &quot;resourceType&quot;: &quot;Observation&quot;,\n  &quot;meta&quot;: {\n    &quot;profile&quot;: [\n      &quot;http://hl7.org/fhir/uv/genomics-reporting/StructureDefinition/medication-metabolism&quot;\n    ]\n  },\n  &quot;language&quot;: &quot;en-US&quot;,\n  &quot;extension&quot;: [\n    {\n      &quot;url&quot;: &quot;http://namingsystem.org/fhir/StructureDefinition/interpretation-summary-text&quot;,\n      &quot;valueString&quot;: &quot;This individual is heterozygous for the increased function allele of the CYP2C19 gene.  Based on the genotype result, this patient is predicted to have a CYP2C19 rapid metabolizer phenotype. This genotype information can be used by patients and clinicians as part of the shared decision-making process for several drugs metabolized by CYP2C19 including clopidogrel, voriconazole, amitriptyline, citalopram and escitalopram. For clopidogrel, individuals with this diplotype are expected to have normal platelet inhibition and normal residual platelet aggregation in response to clopidogrel. Label recommended dosage and administration are recommended. Refer to current guidelines for dosage and recommendations at https://cpicpgx.org/guidelines/guideline-for-clopidogrel-and-cyp2c19/. For voriconazole, for adult patients, the probability of attainment of therapeutic voriconazole concentrations in individuals with this genotype is modest with standard dosing. An alternative agent that is not dependent on CYP2C19 metabolism as primary therapy in lieu of voriconazole such as isavuconazole, liposomal amphotericin B, and posaconazole, is recommended. For pediatric rapid metabolizer patients, therapy should be initiated at recommended standard of care dosing, then therapeutic dosing monitoring should be used to titrate dose to therapeutic trough concentrations. Refer to current guidelines for dosage and recommendations at https://cpicpgx.org/guidelines/guideline-for-voriconazole-and-cyp2c19/. For citalopram and escitalopram, an alternative drug not predominantly metabolized by CYP2D19 is recommended. Refer to current guidelines for dosage and recommendations at https://cpicpgx.org/guidelines/guideline-for-selective-serotonin-reuptake-inhibitors-and-cyp2d6-and-cyp2c19/. For amitriptyline, an alternative drug not predominantly metabolized by CYP2D19 is recommended. If a tricyclic is warranted, therapeutic drug monitoring to guide dose adjustment is recommended. Refer to current guidelines for dosage and recommendations at https://cpicpgx.org/guidelines/guideline-for-tricyclic-antidepressants-and-cyp2d6-and-cyp2c19/. For citalopram, escitalopram and amitriptyline, if CYP2D6 genotyping is available, refer to the current guidelines for dosing recommendations.&quot;\n    }\n  ],\n  &quot;status&quot;: &quot;final&quot;,\n  &quot;category&quot;: [\n    {\n      &quot;coding&quot;: [\n        {\n          &quot;system&quot;: &quot;http://terminology.hl7.org/CodeSystem/observation-category&quot;,\n          &quot;code&quot;: &quot;laboratory&quot;,\n          &quot;display&quot;: &quot;Laboratory&quot;\n        }\n      ]\n    }\n  ],\n  &quot;code&quot;: {\n    &quot;coding&quot;: [\n      {\n        &quot;system&quot;: &quot;http://loinc.org&quot;,\n        &quot;code&quot;: &quot;53040-2&quot;,\n        &quot;display&quot;: &quot;Genetic variation's effect on drug metabolism&quot;\n      }\n    ]\n  },\n  &quot;subject&quot;: {\n    &quot;reference&quot;: &quot;urn:uuid:9ba16fd4-ac43-4764-89cc-f4e21f5cc2ef&quot;\n  },\n  &quot;performer&quot;: [\n    {\n      &quot;reference&quot;: &quot;urn:uuid:918ac52b-7fb1-482e-883e-74cebf6ad766&quot;\n    }\n  ],\n  &quot;valueCodeableConcept&quot;: {\n    &quot;coding&quot;: [\n      {\n        &quot;system&quot;: &quot;http://loinc.org&quot;,\n        &quot;code&quot;: &quot;LA25390-8&quot;,\n        &quot;display&quot;: &quot;Rapid metabolizer&quot;\n      }\n    ]\n  },\n  &quot;derivedFrom&quot;: [\n    {\n      &quot;reference&quot;: &quot;urn:uuid:2dcda423-504b-423e-9744-8aa30d02a82c&quot;\n    }\n  ],\n  &quot;component&quot;: [\n    {\n      &quot;extension&quot;: [\n        {\n          &quot;url&quot;: &quot;http://hl7.org/fhir/uv/genomics-reporting/StructureDefinition/RelatedArtifact&quot;,\n          &quot;valueRelatedArtifact&quot;: {\n            &quot;type&quot;: &quot;justification&quot;,\n            &quot;url&quot;: &quot;https://cpicpgx.org/guidelines/guideline-for-clopidogrel-and-cyp2c19/&quot;\n          }\n        }\n      ],\n      &quot;code&quot;: {\n        &quot;coding&quot;: [\n          {\n            &quot;system&quot;: &quot;http://loinc.org&quot;,\n            &quot;code&quot;: &quot;51963-7&quot;,\n            &quot;display&quot;: &quot;Medication assessed&quot;\n          }\n        ]\n      },\n      &quot;valueCodeableConcept&quot;: {\n        &quot;coding&quot;: [\n          {\n            &quot;system&quot;: &quot;http://ncimeta.nci.nih.gov&quot;,\n            &quot;code&quot;: &quot;C0070166&quot;,\n            &quot;display&quot;: &quot;clopidogrel&quot;\n          }\n        ]\n      }\n    },\n    {\n      &quot;extension&quot;: [\n        {\n          &quot;url&quot;: &quot;http://hl7.org/fhir/uv/genomics-reporting/StructureDefinition/RelatedArtifact&quot;,\n          &quot;valueRelatedArtifact&quot;: {\n            &quot;type&quot;: &quot;justification&quot;,\n            &quot;url&quot;: &quot;https://cpicpgx.org/guidelines/guideline-for-voriconazole-and-cyp2c19/&quot;\n          }\n        }\n      ],\n      &quot;code&quot;: {\n        &quot;coding&quot;: [\n          {\n            &quot;system&quot;: &quot;http://loinc.org&quot;,\n            &quot;code&quot;: &quot;51963-7&quot;,\n            &quot;display&quot;: &quot;Medication assessed&quot;\n          }\n        ]\n      },\n      &quot;valueCodeableConcept&quot;: {\n        &quot;coding&quot;: [\n          {\n            &quot;system&quot;: &quot;http://ncimeta.nci.nih.gov&quot;,\n            &quot;code&quot;: &quot;C0393080&quot;,\n            &quot;display&quot;: &quot;voriconazole&quot;\n          }\n        ]\n      }\n    },\n    {\n      &quot;extension&quot;: [\n        {\n          &quot;url&quot;: &quot;http://hl7.org/fhir/uv/genomics-reporting/StructureDefinition/RelatedArtifact&quot;,\n          &quot;valueRelatedArtifact&quot;: {\n            &quot;type&quot;: &quot;justification&quot;,\n            &quot;url&quot;: &quot;https://cpicpgx.org/guidelines/guideline-for-selective-serotonin-reuptake-inhibitors-and-cyp2d6-and-cyp2c19/&quot;\n          }\n        }\n      ],\n      &quot;code&quot;: {\n        &quot;coding&quot;: [\n          {\n            &quot;system&quot;: &quot;http://loinc.org&quot;,\n            &quot;code&quot;: &quot;51963-7&quot;,\n            &quot;display&quot;: &quot;Medication assessed&quot;\n          }\n        ]\n      },\n      &quot;valueCodeableConcept&quot;: {\n        &quot;coding&quot;: [\n          {\n            &quot;system&quot;: &quot;http://ncimeta.nci.nih.gov&quot;,\n            &quot;code&quot;: &quot;C0008845&quot;,\n            &quot;display&quot;: &quot;citalopram&quot;\n          }\n        ]\n      }\n    },\n    {\n      &quot;extension&quot;: [\n        {\n          &quot;url&quot;: &quot;http://hl7.org/fhir/uv/genomics-reporting/StructureDefinition/RelatedArtifact&quot;,\n          &quot;valueRelatedArtifact&quot;: {\n            &quot;type&quot;: &quot;justification&quot;,\n            &quot;url&quot;: &quot;https://cpicpgx.org/guidelines/guideline-for-selective-serotonin-reuptake-inhibitors-and-cyp2d6-and-cyp2c19/&quot;\n          }\n        }\n      ],\n      &quot;code&quot;: {\n        &quot;coding&quot;: [\n          {\n            &quot;system&quot;: &quot;http://loinc.org&quot;,\n            &quot;code&quot;: &quot;51963-7&quot;,\n            &quot;display&quot;: &quot;Medication assessed&quot;\n          }\n        ]\n      },\n      &quot;valueCodeableConcept&quot;: {\n        &quot;coding&quot;: [\n          {\n            &quot;system&quot;: &quot;http://ncimeta.nci.nih.gov&quot;,\n            &quot;code&quot;: &quot;C1099456&quot;,\n            &quot;display&quot;: &quot;escitalopram&quot;\n          }\n        ]\n      }\n    },\n    {\n      &quot;extension&quot;: [\n        {\n          &quot;url&quot;: &quot;http://hl7.org/fhir/uv/genomics-reporting/StructureDefinition/RelatedArtifact&quot;,\n          &quot;valueRelatedArtifact&quot;: {\n            &quot;type&quot;: &quot;justification&quot;,\n            &quot;url&quot;: &quot;https://cpicpgx.org/guidelines/guideline-for-tricyclic-antidepressants-and-cyp2d6-and-cyp2c19/&quot;\n          }\n        }\n      ],\n      &quot;code&quot;: {\n        &quot;coding&quot;: [\n          {\n            &quot;system&quot;: &quot;http://loinc.org&quot;,\n            &quot;code&quot;: &quot;51963-7&quot;,\n            &quot;display&quot;: &quot;Medication assessed&quot;\n          }\n        ]\n      },\n      &quot;valueCodeableConcept&quot;: {\n        &quot;coding&quot;: [\n          {\n            &quot;system&quot;: &quot;http://ncimeta.nci.nih.gov&quot;,\n            &quot;code&quot;: &quot;C0002600&quot;,\n            &quot;display&quot;: &quot;amitriptyline&quot;\n          }\n        ]\n      }\n    }\n  ]\n}</div>"
        },
        "extension": [
          {
            "url": "http://namingsystem.org/fhir/StructureDefinition/interpretation-summary-text",
            "valueString": "This individual is heterozygous for the increased function allele of the CYP2C19 gene.  Based on the genotype result, this patient is predicted to have a CYP2C19 rapid metabolizer phenotype. This genotype information can be used by patients and clinicians as part of the shared decision-making process for several drugs metabolized by CYP2C19 including clopidogrel, voriconazole, amitriptyline, citalopram and escitalopram. For clopidogrel, individuals with this diplotype are expected to have normal platelet inhibition and normal residual platelet aggregation in response to clopidogrel. Label recommended dosage and administration are recommended. Refer to current guidelines for dosage and recommendations at https://cpicpgx.org/guidelines/guideline-for-clopidogrel-and-cyp2c19/. For voriconazole, for adult patients, the probability of attainment of therapeutic voriconazole concentrations in individuals with this genotype is modest with standard dosing. An alternative agent that is not dependent on CYP2C19 metabolism as primary therapy in lieu of voriconazole such as isavuconazole, liposomal amphotericin B, and posaconazole, is recommended. For pediatric rapid metabolizer patients, therapy should be initiated at recommended standard of care dosing, then therapeutic dosing monitoring should be used to titrate dose to therapeutic trough concentrations. Refer to current guidelines for dosage and recommendations at https://cpicpgx.org/guidelines/guideline-for-voriconazole-and-cyp2c19/. For citalopram and escitalopram, an alternative drug not predominantly metabolized by CYP2D19 is recommended. Refer to current guidelines for dosage and recommendations at https://cpicpgx.org/guidelines/guideline-for-selective-serotonin-reuptake-inhibitors-and-cyp2d6-and-cyp2c19/. For amitriptyline, an alternative drug not predominantly metabolized by CYP2D19 is recommended. If a tricyclic is warranted, therapeutic drug monitoring to guide dose adjustment is recommended. Refer to current guidelines for dosage and recommendations at https://cpicpgx.org/guidelines/guideline-for-tricyclic-antidepressants-and-cyp2d6-and-cyp2c19/. For citalopram, escitalopram and amitriptyline, if CYP2D6 genotyping is available, refer to the current guidelines for dosing recommendations."
          }
        ],
        "status": "final",
        "category": [
          {
            "coding": [
              {
                "system": "http://terminology.hl7.org/CodeSystem/observation-category",
                "code": "laboratory",
                "display": "Laboratory"
              }
            ]
          }
        ],
        "code": {
          "coding": [
            {
              "system": "http://loinc.org",
              "code": "53040-2",
              "display": "Genetic variation's effect on drug metabolism"
            }
          ]
        },
        "subject": {
          "reference": "urn:uuid:9ba16fd4-ac43-4764-89cc-f4e21f5cc2ef"
        },
        "performer": [
          {
            "reference": "urn:uuid:918ac52b-7fb1-482e-883e-74cebf6ad766"
          }
        ],
        "valueCodeableConcept": {
          "coding": [
            {
              "system": "http://loinc.org",
              "code": "LA25390-8",
              "display": "Rapid metabolizer"
            }
          ]
        },
        "derivedFrom": [
          {
            "reference": "urn:uuid:2dcda423-504b-423e-9744-8aa30d02a82c"
          }
        ],
        "component": [
          {
            "extension": [
              {
                "url": "http://hl7.org/fhir/uv/genomics-reporting/StructureDefinition/RelatedArtifact",
                "valueRelatedArtifact": {
                  "type": "justification",
                  "url": "https://cpicpgx.org/guidelines/guideline-for-clopidogrel-and-cyp2c19/"
                }
              }
            ],
            "code": {
              "coding": [
                {
                  "system": "http://loinc.org",
                  "code": "51963-7",
                  "display": "Medication assessed"
                }
              ]
            },
            "valueCodeableConcept": {
              "coding": [
                {
                  "system": "http://ncimeta.nci.nih.gov",
                  "code": "C0070166",
                  "display": "clopidogrel"
                }
              ]
            }
          },
          {
            "extension": [
              {
                "url": "http://hl7.org/fhir/uv/genomics-reporting/StructureDefinition/RelatedArtifact",
                "valueRelatedArtifact": {
                  "type": "justification",
                  "url": "https://cpicpgx.org/guidelines/guideline-for-voriconazole-and-cyp2c19/"
                }
              }
            ],
            "code": {
              "coding": [
                {
                  "system": "http://loinc.org",
                  "code": "51963-7",
                  "display": "Medication assessed"
                }
              ]
            },
            "valueCodeableConcept": {
              "coding": [
                {
                  "system": "http://ncimeta.nci.nih.gov",
                  "code": "C0393080",
                  "display": "voriconazole"
                }
              ]
            }
          },
          {
            "extension": [
              {
                "url": "http://hl7.org/fhir/uv/genomics-reporting/StructureDefinition/RelatedArtifact",
                "valueRelatedArtifact": {
                  "type": "justification",
                  "url": "https://cpicpgx.org/guidelines/guideline-for-selective-serotonin-reuptake-inhibitors-and-cyp2d6-and-cyp2c19/"
                }
              }
            ],
            "code": {
              "coding": [
                {
                  "system": "http://loinc.org",
                  "code": "51963-7",
                  "display": "Medication assessed"
                }
              ]
            },
            "valueCodeableConcept": {
              "coding": [
                {
                  "system": "http://ncimeta.nci.nih.gov",
                  "code": "C0008845",
                  "display": "citalopram"
                }
              ]
            }
          },
          {
            "extension": [
              {
                "url": "http://hl7.org/fhir/uv/genomics-reporting/StructureDefinition/RelatedArtifact",
                "valueRelatedArtifact": {
                  "type": "justification",
                  "url": "https://cpicpgx.org/guidelines/guideline-for-selective-serotonin-reuptake-inhibitors-and-cyp2d6-and-cyp2c19/"
                }
              }
            ],
            "code": {
              "coding": [
                {
                  "system": "http://loinc.org",
                  "code": "51963-7",
                  "display": "Medication assessed"
                }
              ]
            },
            "valueCodeableConcept": {
              "coding": [
                {
                  "system": "http://ncimeta.nci.nih.gov",
                  "code": "C1099456",
                  "display": "escitalopram"
                }
              ]
            }
          },
          {
            "extension": [
              {
                "url": "http://hl7.org/fhir/uv/genomics-reporting/StructureDefinition/RelatedArtifact",
                "valueRelatedArtifact": {
                  "type": "justification",
                  "url": "https://cpicpgx.org/guidelines/guideline-for-tricyclic-antidepressants-and-cyp2d6-and-cyp2c19/"
                }
              }
            ],
            "code": {
              "coding": [
                {
                  "system": "http://loinc.org",
                  "code": "51963-7",
                  "display": "Medication assessed"
                }
              ]
            },
            "valueCodeableConcept": {
              "coding": [
                {
                  "system": "http://ncimeta.nci.nih.gov",
                  "code": "C0002600",
                  "display": "amitriptyline"
                }
              ]
            }
          }
        ]
      },
      "request": {
        "method": "POST",
        "url": "Observation"
      }
    },
    {
      "fullUrl": "urn:uuid:dbce9863-1c1e-4b71-adea-480527d99210",
      "resource": {
        "resourceType": "Observation",
        "meta": {
          "profile": [
            "http://hl7.org/fhir/uv/genomics-reporting/StructureDefinition/medication-metabolism"
          ]
        },
        "language": "en-US",
        "text": {
          "status": "generated",
          "div": "<div xmlns=\"http://www.w3.org/1999/xhtml\">{\n  &quot;resourceType&quot;: &quot;Observation&quot;,\n  &quot;meta&quot;: {\n    &quot;profile&quot;: [\n      &quot;http://hl7.org/fhir/uv/genomics-reporting/StructureDefinition/medication-metabolism&quot;\n    ]\n  },\n  &quot;language&quot;: &quot;en-US&quot;,\n  &quot;extension&quot;: [\n    {\n      &quot;url&quot;: &quot;http://namingsystem.org/fhir/StructureDefinition/interpretation-summary-text&quot;,\n      &quot;valueString&quot;: &quot;This individual is homozygous for the functional allele of the DPYD gene.  This genotype information can be used by patients and clinicians as part of the shared decision-making process for fluoropyrimidines (capecitabine, fluorouracil, tegafur).  Based on the genotype result, this patient is predicted to have a normal DPD activity phenotype.  Individuals with this diplotype are expected to have \\&quot;normal\\&quot; risk for fluoropyrimidine toxicity. Recommendations include the use of label recommended dosage and administration. Refer to current guidelines for dosage and recommendations at https://cpicpgx.org/guidelines/guideline-for-fluoropyrimidines-and-dpyd/.&quot;\n    }\n  ],\n  &quot;status&quot;: &quot;final&quot;,\n  &quot;category&quot;: [\n    {\n      &quot;coding&quot;: [\n        {\n          &quot;system&quot;: &quot;http://terminology.hl7.org/CodeSystem/observation-category&quot;,\n          &quot;code&quot;: &quot;laboratory&quot;,\n          &quot;display&quot;: &quot;Laboratory&quot;\n        }\n      ]\n    }\n  ],\n  &quot;code&quot;: {\n    &quot;coding&quot;: [\n      {\n        &quot;system&quot;: &quot;http://loinc.org&quot;,\n        &quot;code&quot;: &quot;53040-2&quot;,\n        &quot;display&quot;: &quot;Genetic variation's effect on drug metabolism&quot;\n      }\n    ]\n  },\n  &quot;subject&quot;: {\n    &quot;reference&quot;: &quot;urn:uuid:9ba16fd4-ac43-4764-89cc-f4e21f5cc2ef&quot;\n  },\n  &quot;performer&quot;: [\n    {\n      &quot;reference&quot;: &quot;urn:uuid:918ac52b-7fb1-482e-883e-74cebf6ad766&quot;\n    }\n  ],\n  &quot;valueCodeableConcept&quot;: {\n    &quot;coding&quot;: [\n      {\n        &quot;system&quot;: &quot;http://loinc.org&quot;,\n        &quot;code&quot;: &quot;LA25391-6&quot;,\n        &quot;display&quot;: &quot;Normal metabolizer&quot;\n      }\n    ]\n  },\n  &quot;derivedFrom&quot;: [\n    {\n      &quot;reference&quot;: &quot;urn:uuid:b6e35050-eb43-4128-9750-0f1db71d306e&quot;\n    }\n  ],\n  &quot;component&quot;: [\n    {\n      &quot;extension&quot;: [\n        {\n          &quot;url&quot;: &quot;http://hl7.org/fhir/uv/genomics-reporting/StructureDefinition/RelatedArtifact&quot;,\n          &quot;valueRelatedArtifact&quot;: {\n            &quot;type&quot;: &quot;justification&quot;,\n            &quot;url&quot;: &quot;https://cpicpgx.org/guidelines/guideline-for-fluoropyrimidines-and-dpyd/&quot;\n          }\n        }\n      ],\n      &quot;code&quot;: {\n        &quot;coding&quot;: [\n          {\n            &quot;system&quot;: &quot;http://loinc.org&quot;,\n            &quot;code&quot;: &quot;51963-7&quot;,\n            &quot;display&quot;: &quot;Medication assessed&quot;\n          }\n        ]\n      },\n      &quot;valueCodeableConcept&quot;: {\n        &quot;coding&quot;: [\n          {\n            &quot;system&quot;: &quot;http://ncimeta.nci.nih.gov&quot;,\n            &quot;code&quot;: &quot;C0671970&quot;,\n            &quot;display&quot;: &quot;capecitabine&quot;\n          }\n        ]\n      }\n    },\n    {\n      &quot;extension&quot;: [\n        {\n          &quot;url&quot;: &quot;http://hl7.org/fhir/uv/genomics-reporting/StructureDefinition/RelatedArtifact&quot;,\n          &quot;valueRelatedArtifact&quot;: {\n            &quot;type&quot;: &quot;justification&quot;,\n            &quot;url&quot;: &quot;https://cpicpgx.org/guidelines/guideline-for-fluoropyrimidines-and-dpyd/&quot;\n          }\n        }\n      ],\n      &quot;code&quot;: {\n        &quot;coding&quot;: [\n          {\n            &quot;system&quot;: &quot;http://loinc.org&quot;,\n            &quot;code&quot;: &quot;51963-7&quot;,\n            &quot;display&quot;: &quot;Medication assessed&quot;\n          }\n        ]\n      },\n      &quot;valueCodeableConcept&quot;: {\n        &quot;coding&quot;: [\n          {\n            &quot;system&quot;: &quot;http://ncimeta.nci.nih.gov&quot;,\n            &quot;code&quot;: &quot;C0016360&quot;,\n            &quot;display&quot;: &quot;fluorouracil&quot;\n          }\n        ]\n      }\n    },\n    {\n      &quot;extension&quot;: [\n        {\n          &quot;url&quot;: &quot;http://hl7.org/fhir/uv/genomics-reporting/StructureDefinition/RelatedArtifact&quot;,\n          &quot;valueRelatedArtifact&quot;: {\n            &quot;type&quot;: &quot;justification&quot;,\n            &quot;url&quot;: &quot;https://cpicpgx.org/guidelines/guideline-for-fluoropyrimidines-and-dpyd/&quot;\n          }\n        }\n      ],\n      &quot;code&quot;: {\n        &quot;coding&quot;: [\n          {\n            &quot;system&quot;: &quot;http://loinc.org&quot;,\n            &quot;code&quot;: &quot;51963-7&quot;,\n            &quot;display&quot;: &quot;Medication assessed&quot;\n          }\n        ]\n      },\n      &quot;valueCodeableConcept&quot;: {\n        &quot;coding&quot;: [\n          {\n            &quot;system&quot;: &quot;http://ncimeta.nci.nih.gov&quot;,\n            &quot;code&quot;: &quot;C0016778&quot;,\n            &quot;display&quot;: &quot;tegafur&quot;\n          }\n        ]\n      }\n    }\n  ]\n}</div>"
        },
        "extension": [
          {
            "url": "http://namingsystem.org/fhir/StructureDefinition/interpretation-summary-text",
            "valueString": "This individual is homozygous for the functional allele of the DPYD gene.  This genotype information can be used by patients and clinicians as part of the shared decision-making process for fluoropyrimidines (capecitabine, fluorouracil, tegafur).  Based on the genotype result, this patient is predicted to have a normal DPD activity phenotype.  Individuals with this diplotype are expected to have \"normal\" risk for fluoropyrimidine toxicity. Recommendations include the use of label recommended dosage and administration. Refer to current guidelines for dosage and recommendations at https://cpicpgx.org/guidelines/guideline-for-fluoropyrimidines-and-dpyd/."
          }
        ],
        "status": "final",
        "category": [
          {
            "coding": [
              {
                "system": "http://terminology.hl7.org/CodeSystem/observation-category",
                "code": "laboratory",
                "display": "Laboratory"
              }
            ]
          }
        ],
        "code": {
          "coding": [
            {
              "system": "http://loinc.org",
              "code": "53040-2",
              "display": "Genetic variation's effect on drug metabolism"
            }
          ]
        },
        "subject": {
          "reference": "urn:uuid:9ba16fd4-ac43-4764-89cc-f4e21f5cc2ef"
        },
        "performer": [
          {
            "reference": "urn:uuid:918ac52b-7fb1-482e-883e-74cebf6ad766"
          }
        ],
        "valueCodeableConcept": {
          "coding": [
            {
              "system": "http://loinc.org",
              "code": "LA25391-6",
              "display": "Normal metabolizer"
            }
          ]
        },
        "derivedFrom": [
          {
            "reference": "urn:uuid:b6e35050-eb43-4128-9750-0f1db71d306e"
          }
        ],
        "component": [
          {
            "extension": [
              {
                "url": "http://hl7.org/fhir/uv/genomics-reporting/StructureDefinition/RelatedArtifact",
                "valueRelatedArtifact": {
                  "type": "justification",
                  "url": "https://cpicpgx.org/guidelines/guideline-for-fluoropyrimidines-and-dpyd/"
                }
              }
            ],
            "code": {
              "coding": [
                {
                  "system": "http://loinc.org",
                  "code": "51963-7",
                  "display": "Medication assessed"
                }
              ]
            },
            "valueCodeableConcept": {
              "coding": [
                {
                  "system": "http://ncimeta.nci.nih.gov",
                  "code": "C0671970",
                  "display": "capecitabine"
                }
              ]
            }
          },
          {
            "extension": [
              {
                "url": "http://hl7.org/fhir/uv/genomics-reporting/StructureDefinition/RelatedArtifact",
                "valueRelatedArtifact": {
                  "type": "justification",
                  "url": "https://cpicpgx.org/guidelines/guideline-for-fluoropyrimidines-and-dpyd/"
                }
              }
            ],
            "code": {
              "coding": [
                {
                  "system": "http://loinc.org",
                  "code": "51963-7",
                  "display": "Medication assessed"
                }
              ]
            },
            "valueCodeableConcept": {
              "coding": [
                {
                  "system": "http://ncimeta.nci.nih.gov",
                  "code": "C0016360",
                  "display": "fluorouracil"
                }
              ]
            }
          },
          {
            "extension": [
              {
                "url": "http://hl7.org/fhir/uv/genomics-reporting/StructureDefinition/RelatedArtifact",
                "valueRelatedArtifact": {
                  "type": "justification",
                  "url": "https://cpicpgx.org/guidelines/guideline-for-fluoropyrimidines-and-dpyd/"
                }
              }
            ],
            "code": {
              "coding": [
                {
                  "system": "http://loinc.org",
                  "code": "51963-7",
                  "display": "Medication assessed"
                }
              ]
            },
            "valueCodeableConcept": {
              "coding": [
                {
                  "system": "http://ncimeta.nci.nih.gov",
                  "code": "C0016778",
                  "display": "tegafur"
                }
              ]
            }
          }
        ]
      },
      "request": {
        "method": "POST",
        "url": "Observation"
      }
    },
    {
      "fullUrl": "urn:uuid:531ce4cf-bf76-4e94-90bd-8048fcc7d7fb",
      "resource": {
        "resourceType": "Observation",
        "meta": {
          "profile": [
            "http://hl7.org/fhir/uv/genomics-reporting/StructureDefinition/medication-efficacy"
          ]
        },
        "language": "en-US",
        "text": {
          "status": "generated",
          "div": "<div xmlns=\"http://www.w3.org/1999/xhtml\">{\n  &quot;resourceType&quot;: &quot;Observation&quot;,\n  &quot;meta&quot;: {\n    &quot;profile&quot;: [\n      &quot;http://hl7.org/fhir/uv/genomics-reporting/StructureDefinition/medication-efficacy&quot;\n    ]\n  },\n  &quot;language&quot;: &quot;en-US&quot;,\n  &quot;extension&quot;: [\n    {\n      &quot;url&quot;: &quot;http://namingsystem.org/fhir/StructureDefinition/interpretation-summary-text&quot;,\n      &quot;valueString&quot;: &quot;This individual is heterozygous for the rs12979860 C/T allele in the IFNL3 gene. This variant is the strongest baseline predictor of response to peginterferon alfa and ribavirin therapy in previously untreated patients and can be used by patients and clinicians as part of the shared decision-making process for initiating treatment for hepatitis C virus infection. Based on the genotype result, this patient is predicted to have a reduced likelihood of response (lower sustained virological response rate) to peginterferon alfa and ribavirin therapy as compared with patients with favorable response genotype. Refer to current guidelines for dosage and recommendations at https://cpicpgx.org/guidelines/guideline-for-peg-interferon-alpha-based-regimens-and-ifnl3/.&quot;\n    }\n  ],\n  &quot;status&quot;: &quot;final&quot;,\n  &quot;category&quot;: [\n    {\n      &quot;coding&quot;: [\n        {\n          &quot;system&quot;: &quot;http://terminology.hl7.org/CodeSystem/observation-category&quot;,\n          &quot;code&quot;: &quot;laboratory&quot;,\n          &quot;display&quot;: &quot;Laboratory&quot;\n        }\n      ]\n    }\n  ],\n  &quot;code&quot;: {\n    &quot;coding&quot;: [\n      {\n        &quot;system&quot;: &quot;http://loinc.org&quot;,\n        &quot;code&quot;: &quot;51961-1&quot;,\n        &quot;display&quot;: &quot;Genetic variation's effect on drug efficacy&quot;\n      }\n    ]\n  },\n  &quot;subject&quot;: {\n    &quot;reference&quot;: &quot;urn:uuid:9ba16fd4-ac43-4764-89cc-f4e21f5cc2ef&quot;\n  },\n  &quot;performer&quot;: [\n    {\n      &quot;reference&quot;: &quot;urn:uuid:918ac52b-7fb1-482e-883e-74cebf6ad766&quot;\n    }\n  ],\n  &quot;valueCodeableConcept&quot;: {\n    &quot;text&quot;: &quot;Unfavorable response genotype&quot;\n  },\n  &quot;derivedFrom&quot;: [\n    {\n      &quot;reference&quot;: &quot;urn:uuid:ca47d9af-2945-4b7d-96e6-fe901909784e&quot;\n    }\n  ],\n  &quot;component&quot;: [\n    {\n      &quot;extension&quot;: [\n        {\n          &quot;url&quot;: &quot;http://hl7.org/fhir/uv/genomics-reporting/StructureDefinition/RelatedArtifact&quot;,\n          &quot;valueRelatedArtifact&quot;: {\n            &quot;type&quot;: &quot;justification&quot;,\n            &quot;url&quot;: &quot;https://cpicpgx.org/guidelines/guideline-for-peg-interferon-alpha-based-regimens-and-ifnl3/&quot;\n          }\n        }\n      ],\n      &quot;code&quot;: {\n        &quot;coding&quot;: [\n          {\n            &quot;system&quot;: &quot;http://loinc.org&quot;,\n            &quot;code&quot;: &quot;51963-7&quot;,\n            &quot;display&quot;: &quot;Medication assessed&quot;\n          }\n        ]\n      },\n      &quot;valueCodeableConcept&quot;: {\n        &quot;coding&quot;: [\n          {\n            &quot;system&quot;: &quot;http://ncimeta.nci.nih.gov&quot;,\n            &quot;code&quot;: &quot;C0391001&quot;,\n            &quot;display&quot;: &quot;peginterferon alfa-2a&quot;\n          }\n        ]\n      }\n    },\n    {\n      &quot;extension&quot;: [\n        {\n          &quot;url&quot;: &quot;http://hl7.org/fhir/uv/genomics-reporting/StructureDefinition/RelatedArtifact&quot;,\n          &quot;valueRelatedArtifact&quot;: {\n            &quot;type&quot;: &quot;justification&quot;,\n            &quot;url&quot;: &quot;https://cpicpgx.org/guidelines/guideline-for-peg-interferon-alpha-based-regimens-and-ifnl3/&quot;\n          }\n        }\n      ],\n      &quot;code&quot;: {\n        &quot;coding&quot;: [\n          {\n            &quot;system&quot;: &quot;http://loinc.org&quot;,\n            &quot;code&quot;: &quot;51963-7&quot;,\n            &quot;display&quot;: &quot;Medication assessed&quot;\n          }\n        ]\n      },\n      &quot;valueCodeableConcept&quot;: {\n        &quot;coding&quot;: [\n          {\n            &quot;system&quot;: &quot;http://ncimeta.nci.nih.gov&quot;,\n            &quot;code&quot;: &quot;C0796545&quot;,\n            &quot;display&quot;: &quot;peginterferon alfa-2b&quot;\n          }\n        ]\n      }\n    },\n    {\n      &quot;extension&quot;: [\n        {\n          &quot;url&quot;: &quot;http://hl7.org/fhir/uv/genomics-reporting/StructureDefinition/RelatedArtifact&quot;,\n          &quot;valueRelatedArtifact&quot;: {\n            &quot;type&quot;: &quot;justification&quot;,\n            &quot;url&quot;: &quot;https://cpicpgx.org/guidelines/guideline-for-peg-interferon-alpha-based-regimens-and-ifnl3/&quot;\n          }\n        }\n      ],\n      &quot;code&quot;: {\n        &quot;coding&quot;: [\n          {\n            &quot;system&quot;: &quot;http://loinc.org&quot;,\n            &quot;code&quot;: &quot;51963-7&quot;,\n            &quot;display&quot;: &quot;Medication assessed&quot;\n          }\n        ]\n      },\n      &quot;valueCodeableConcept&quot;: {\n        &quot;coding&quot;: [\n          {\n            &quot;system&quot;: &quot;http://ncimeta.nci.nih.gov&quot;,\n            &quot;code&quot;: &quot;C0035525&quot;,\n            &quot;display&quot;: &quot;ribavirin&quot;\n          }\n        ]\n      }\n    }\n  ]\n}</div>"
        },
        "extension": [
          {
            "url": "http://namingsystem.org/fhir/StructureDefinition/interpretation-summary-text",
            "valueString": "This individual is heterozygous for the rs12979860 C/T allele in the IFNL3 gene. This variant is the strongest baseline predictor of response to peginterferon alfa and ribavirin therapy in previously untreated patients and can be used by patients and clinicians as part of the shared decision-making process for initiating treatment for hepatitis C virus infection. Based on the genotype result, this patient is predicted to have a reduced likelihood of response (lower sustained virological response rate) to peginterferon alfa and ribavirin therapy as compared with patients with favorable response genotype. Refer to current guidelines for dosage and recommendations at https://cpicpgx.org/guidelines/guideline-for-peg-interferon-alpha-based-regimens-and-ifnl3/."
          }
        ],
        "status": "final",
        "category": [
          {
            "coding": [
              {
                "system": "http://terminology.hl7.org/CodeSystem/observation-category",
                "code": "laboratory",
                "display": "Laboratory"
              }
            ]
          }
        ],
        "code": {
          "coding": [
            {
              "system": "http://loinc.org",
              "code": "51961-1",
              "display": "Genetic variation's effect on drug efficacy"
            }
          ]
        },
        "subject": {
          "reference": "urn:uuid:9ba16fd4-ac43-4764-89cc-f4e21f5cc2ef"
        },
        "performer": [
          {
            "reference": "urn:uuid:918ac52b-7fb1-482e-883e-74cebf6ad766"
          }
        ],
        "valueCodeableConcept": {
          "text": "Unfavorable response genotype"
        },
        "derivedFrom": [
          {
            "reference": "urn:uuid:ca47d9af-2945-4b7d-96e6-fe901909784e"
          }
        ],
        "component": [
          {
            "extension": [
              {
                "url": "http://hl7.org/fhir/uv/genomics-reporting/StructureDefinition/RelatedArtifact",
                "valueRelatedArtifact": {
                  "type": "justification",
                  "url": "https://cpicpgx.org/guidelines/guideline-for-peg-interferon-alpha-based-regimens-and-ifnl3/"
                }
              }
            ],
            "code": {
              "coding": [
                {
                  "system": "http://loinc.org",
                  "code": "51963-7",
                  "display": "Medication assessed"
                }
              ]
            },
            "valueCodeableConcept": {
              "coding": [
                {
                  "system": "http://ncimeta.nci.nih.gov",
                  "code": "C0391001",
                  "display": "peginterferon alfa-2a"
                }
              ]
            }
          },
          {
            "extension": [
              {
                "url": "http://hl7.org/fhir/uv/genomics-reporting/StructureDefinition/RelatedArtifact",
                "valueRelatedArtifact": {
                  "type": "justification",
                  "url": "https://cpicpgx.org/guidelines/guideline-for-peg-interferon-alpha-based-regimens-and-ifnl3/"
                }
              }
            ],
            "code": {
              "coding": [
                {
                  "system": "http://loinc.org",
                  "code": "51963-7",
                  "display": "Medication assessed"
                }
              ]
            },
            "valueCodeableConcept": {
              "coding": [
                {
                  "system": "http://ncimeta.nci.nih.gov",
                  "code": "C0796545",
                  "display": "peginterferon alfa-2b"
                }
              ]
            }
          },
          {
            "extension": [
              {
                "url": "http://hl7.org/fhir/uv/genomics-reporting/StructureDefinition/RelatedArtifact",
                "valueRelatedArtifact": {
                  "type": "justification",
                  "url": "https://cpicpgx.org/guidelines/guideline-for-peg-interferon-alpha-based-regimens-and-ifnl3/"
                }
              }
            ],
            "code": {
              "coding": [
                {
                  "system": "http://loinc.org",
                  "code": "51963-7",
                  "display": "Medication assessed"
                }
              ]
            },
            "valueCodeableConcept": {
              "coding": [
                {
                  "system": "http://ncimeta.nci.nih.gov",
                  "code": "C0035525",
                  "display": "ribavirin"
                }
              ]
            }
          }
        ]
      },
      "request": {
        "method": "POST",
        "url": "Observation"
      }
    },
    {
      "fullUrl": "urn:uuid:1b08e77f-b8cf-4e35-ad31-f50b15c2cc27",
      "resource": {
        "resourceType": "Observation",
        "meta": {
          "profile": [
            "http://hl7.org/fhir/uv/genomics-reporting/StructureDefinition/medication-transporter"
          ]
        },
        "language": "en-US",
        "text": {
          "status": "generated",
          "div": "<div xmlns=\"http://www.w3.org/1999/xhtml\">{\n  &quot;resourceType&quot;: &quot;Observation&quot;,\n  &quot;meta&quot;: {\n    &quot;profile&quot;: [\n      &quot;http://hl7.org/fhir/uv/genomics-reporting/StructureDefinition/medication-transporter&quot;\n    ]\n  },\n  &quot;language&quot;: &quot;en-US&quot;,\n  &quot;extension&quot;: [\n    {\n      &quot;url&quot;: &quot;http://namingsystem.org/fhir/StructureDefinition/interpretation-summary-text&quot;,\n      &quot;valueString&quot;: &quot;This individual is homozygous for the rs4149056 T/T allele in the SLCO1B1 gene. This genotype information can be used by patients and clinicians as part of the shared decision-making process for simvastatin and other drugs affected by SLCO1B1. Based on the genotype result, this patient is predicted to have normal SLCO1B1 function. This means that there is no reason to adjust the dose of most medications that are affected by SLCO1B1 (including simvastatin) on the basis of SLCO1B1 genetic status. Refer to current guidelines for dosage and recommendations at https://cpicpgx.org/guidelines/guideline-for-simvastatin-and-slco1b1/.&quot;\n    }\n  ],\n  &quot;status&quot;: &quot;final&quot;,\n  &quot;category&quot;: [\n    {\n      &quot;coding&quot;: [\n        {\n          &quot;system&quot;: &quot;http://terminology.hl7.org/CodeSystem/observation-category&quot;,\n          &quot;code&quot;: &quot;laboratory&quot;,\n          &quot;display&quot;: &quot;Laboratory&quot;\n        }\n      ]\n    }\n  ],\n  &quot;code&quot;: {\n    &quot;coding&quot;: [\n      {\n        &quot;system&quot;: &quot;http://hl7.org/fhir/uv/genomics-reporting/CodeSystem/tbd-codes&quot;,\n        &quot;code&quot;: &quot;effect-transporter-function&quot;,\n        &quot;display&quot;: &quot;effect-transporter-function&quot;\n      }\n    ]\n  },\n  &quot;subject&quot;: {\n    &quot;reference&quot;: &quot;urn:uuid:9ba16fd4-ac43-4764-89cc-f4e21f5cc2ef&quot;\n  },\n  &quot;performer&quot;: [\n    {\n      &quot;reference&quot;: &quot;urn:uuid:918ac52b-7fb1-482e-883e-74cebf6ad766&quot;\n    }\n  ],\n  &quot;valueCodeableConcept&quot;: {\n    &quot;text&quot;: &quot;Normal function, Normal simvastatin induced myopathy risk&quot;\n  },\n  &quot;derivedFrom&quot;: [\n    {\n      &quot;reference&quot;: &quot;urn:uuid:9e8b00b1-d283-4204-8372-141c65a200bb&quot;\n    }\n  ],\n  &quot;component&quot;: [\n    {\n      &quot;extension&quot;: [\n        {\n          &quot;url&quot;: &quot;http://hl7.org/fhir/uv/genomics-reporting/StructureDefinition/RelatedArtifact&quot;,\n          &quot;valueRelatedArtifact&quot;: {\n            &quot;type&quot;: &quot;justification&quot;,\n            &quot;url&quot;: &quot;https://cpicpgx.org/guidelines/guideline-for-simvastatin-and-slco1b1/&quot;\n          }\n        }\n      ],\n      &quot;code&quot;: {\n        &quot;coding&quot;: [\n          {\n            &quot;system&quot;: &quot;http://loinc.org&quot;,\n            &quot;code&quot;: &quot;51963-7&quot;,\n            &quot;display&quot;: &quot;Medication assessed&quot;\n          }\n        ]\n      },\n      &quot;valueCodeableConcept&quot;: {\n        &quot;coding&quot;: [\n          {\n            &quot;system&quot;: &quot;http://ncimeta.nci.nih.gov&quot;,\n            &quot;code&quot;: &quot;C0074554&quot;,\n            &quot;display&quot;: &quot;simvastatin&quot;\n          }\n        ]\n      }\n    }\n  ]\n}</div>"
        },
        "extension": [
          {
            "url": "http://namingsystem.org/fhir/StructureDefinition/interpretation-summary-text",
            "valueString": "This individual is homozygous for the rs4149056 T/T allele in the SLCO1B1 gene. This genotype information can be used by patients and clinicians as part of the shared decision-making process for simvastatin and other drugs affected by SLCO1B1. Based on the genotype result, this patient is predicted to have normal SLCO1B1 function. This means that there is no reason to adjust the dose of most medications that are affected by SLCO1B1 (including simvastatin) on the basis of SLCO1B1 genetic status. Refer to current guidelines for dosage and recommendations at https://cpicpgx.org/guidelines/guideline-for-simvastatin-and-slco1b1/."
          }
        ],
        "status": "final",
        "category": [
          {
            "coding": [
              {
                "system": "http://terminology.hl7.org/CodeSystem/observation-category",
                "code": "laboratory",
                "display": "Laboratory"
              }
            ]
          }
        ],
        "code": {
          "coding": [
            {
              "system": "http://hl7.org/fhir/uv/genomics-reporting/CodeSystem/tbd-codes",
              "code": "effect-transporter-function",
              "display": "effect-transporter-function"
            }
          ]
        },
        "subject": {
          "reference": "urn:uuid:9ba16fd4-ac43-4764-89cc-f4e21f5cc2ef"
        },
        "performer": [
          {
            "reference": "urn:uuid:918ac52b-7fb1-482e-883e-74cebf6ad766"
          }
        ],
        "valueCodeableConcept": {
          "text": "Normal function, Normal simvastatin induced myopathy risk"
        },
        "derivedFrom": [
          {
            "reference": "urn:uuid:9e8b00b1-d283-4204-8372-141c65a200bb"
          }
        ],
        "component": [
          {
            "extension": [
              {
                "url": "http://hl7.org/fhir/uv/genomics-reporting/StructureDefinition/RelatedArtifact",
                "valueRelatedArtifact": {
                  "type": "justification",
                  "url": "https://cpicpgx.org/guidelines/guideline-for-simvastatin-and-slco1b1/"
                }
              }
            ],
            "code": {
              "coding": [
                {
                  "system": "http://loinc.org",
                  "code": "51963-7",
                  "display": "Medication assessed"
                }
              ]
            },
            "valueCodeableConcept": {
              "coding": [
                {
                  "system": "http://ncimeta.nci.nih.gov",
                  "code": "C0074554",
                  "display": "simvastatin"
                }
              ]
            }
          }
        ]
      },
      "request": {
        "method": "POST",
        "url": "Observation"
      }
    },
    {
      "fullUrl": "urn:uuid:8c097d45-413b-4547-8aa7-d4ed9e4ad701",
      "resource": {
        "resourceType": "Observation",
        "meta": {
          "profile": [
            "http://hl7.org/fhir/uv/genomics-reporting/StructureDefinition/medication-metabolism"
          ]
        },
        "language": "en-US",
        "text": {
          "status": "generated",
          "div": "<div xmlns=\"http://www.w3.org/1999/xhtml\">{\n  &quot;resourceType&quot;: &quot;Observation&quot;,\n  &quot;meta&quot;: {\n    &quot;profile&quot;: [\n      &quot;http://hl7.org/fhir/uv/genomics-reporting/StructureDefinition/medication-metabolism&quot;\n    ]\n  },\n  &quot;language&quot;: &quot;en-US&quot;,\n  &quot;extension&quot;: [\n    {\n      &quot;url&quot;: &quot;http://namingsystem.org/fhir/StructureDefinition/interpretation-summary-text&quot;,\n      &quot;valueString&quot;: &quot;This individual is homozygous for the normal high activity allele of the TPMT gene.  Decreased TPMT gene activity is associated with toxicity and myelosuppression in response to thiopurines, and this genotype information can be used by patients and clinicians as part of the shared decision-making process for initiating treatment.  Based on the genotype result, this patient is predicted to have normal TPMT function. Individuals with this diplotype are expected to have a normal response to mercaptopurine, azathioprine and thioguanine. A normal dose of thiopurine and adjustment following the disease-specific guidelines is recommended. Refer to current guidelines for dosage and recommendations for each specific thiopurine drug at https://cpicpgx.org/guidelines/guideline-for-thiopurines-and-tpmt/.&quot;\n    }\n  ],\n  &quot;status&quot;: &quot;final&quot;,\n  &quot;category&quot;: [\n    {\n      &quot;coding&quot;: [\n        {\n          &quot;system&quot;: &quot;http://terminology.hl7.org/CodeSystem/observation-category&quot;,\n          &quot;code&quot;: &quot;laboratory&quot;,\n          &quot;display&quot;: &quot;Laboratory&quot;\n        }\n      ]\n    }\n  ],\n  &quot;code&quot;: {\n    &quot;coding&quot;: [\n      {\n        &quot;system&quot;: &quot;http://loinc.org&quot;,\n        &quot;code&quot;: &quot;53040-2&quot;,\n        &quot;display&quot;: &quot;Genetic variation's effect on drug metabolism&quot;\n      }\n    ]\n  },\n  &quot;subject&quot;: {\n    &quot;reference&quot;: &quot;urn:uuid:9ba16fd4-ac43-4764-89cc-f4e21f5cc2ef&quot;\n  },\n  &quot;performer&quot;: [\n    {\n      &quot;reference&quot;: &quot;urn:uuid:918ac52b-7fb1-482e-883e-74cebf6ad766&quot;\n    }\n  ],\n  &quot;valueCodeableConcept&quot;: {\n    &quot;text&quot;: &quot;High activity&quot;\n  },\n  &quot;derivedFrom&quot;: [\n    {\n      &quot;reference&quot;: &quot;urn:uuid:f2885ece-170e-4b83-92ca-2d09855dd989&quot;\n    }\n  ],\n  &quot;component&quot;: [\n    {\n      &quot;extension&quot;: [\n        {\n          &quot;url&quot;: &quot;http://hl7.org/fhir/uv/genomics-reporting/StructureDefinition/RelatedArtifact&quot;,\n          &quot;valueRelatedArtifact&quot;: {\n            &quot;type&quot;: &quot;justification&quot;,\n            &quot;url&quot;: &quot;https://cpicpgx.org/guidelines/guideline-for-thiopurines-and-tpmt/&quot;\n          }\n        }\n      ],\n      &quot;code&quot;: {\n        &quot;coding&quot;: [\n          {\n            &quot;system&quot;: &quot;http://loinc.org&quot;,\n            &quot;code&quot;: &quot;51963-7&quot;,\n            &quot;display&quot;: &quot;Medication assessed&quot;\n          }\n        ]\n      },\n      &quot;valueCodeableConcept&quot;: {\n        &quot;coding&quot;: [\n          {\n            &quot;system&quot;: &quot;http://ncimeta.nci.nih.gov&quot;,\n            &quot;code&quot;: &quot;C0004482&quot;,\n            &quot;display&quot;: &quot;azathioprine&quot;\n          }\n        ]\n      }\n    },\n    {\n      &quot;extension&quot;: [\n        {\n          &quot;url&quot;: &quot;http://hl7.org/fhir/uv/genomics-reporting/StructureDefinition/RelatedArtifact&quot;,\n          &quot;valueRelatedArtifact&quot;: {\n            &quot;type&quot;: &quot;justification&quot;,\n            &quot;url&quot;: &quot;https://cpicpgx.org/guidelines/guideline-for-thiopurines-and-tpmt/&quot;\n          }\n        }\n      ],\n      &quot;code&quot;: {\n        &quot;coding&quot;: [\n          {\n            &quot;system&quot;: &quot;http://loinc.org&quot;,\n            &quot;code&quot;: &quot;51963-7&quot;,\n            &quot;display&quot;: &quot;Medication assessed&quot;\n          }\n        ]\n      },\n      &quot;valueCodeableConcept&quot;: {\n        &quot;coding&quot;: [\n          {\n            &quot;system&quot;: &quot;http://ncimeta.nci.nih.gov&quot;,\n            &quot;code&quot;: &quot;C0000618&quot;,\n            &quot;display&quot;: &quot;mercaptopurine&quot;\n          }\n        ]\n      }\n    },\n    {\n      &quot;extension&quot;: [\n        {\n          &quot;url&quot;: &quot;http://hl7.org/fhir/uv/genomics-reporting/StructureDefinition/RelatedArtifact&quot;,\n          &quot;valueRelatedArtifact&quot;: {\n            &quot;type&quot;: &quot;justification&quot;,\n            &quot;url&quot;: &quot;https://cpicpgx.org/guidelines/guideline-for-thiopurines-and-tpmt/&quot;\n          }\n        }\n      ],\n      &quot;code&quot;: {\n        &quot;coding&quot;: [\n          {\n            &quot;system&quot;: &quot;http://loinc.org&quot;,\n            &quot;code&quot;: &quot;51963-7&quot;,\n            &quot;display&quot;: &quot;Medication assessed&quot;\n          }\n        ]\n      },\n      &quot;valueCodeableConcept&quot;: {\n        &quot;coding&quot;: [\n          {\n            &quot;system&quot;: &quot;http://ncimeta.nci.nih.gov&quot;,\n            &quot;code&quot;: &quot;C0039902&quot;,\n            &quot;display&quot;: &quot;thioguanine&quot;\n          }\n        ]\n      }\n    }\n  ]\n}</div>"
        },
        "extension": [
          {
            "url": "http://namingsystem.org/fhir/StructureDefinition/interpretation-summary-text",
            "valueString": "This individual is homozygous for the normal high activity allele of the TPMT gene.  Decreased TPMT gene activity is associated with toxicity and myelosuppression in response to thiopurines, and this genotype information can be used by patients and clinicians as part of the shared decision-making process for initiating treatment.  Based on the genotype result, this patient is predicted to have normal TPMT function. Individuals with this diplotype are expected to have a normal response to mercaptopurine, azathioprine and thioguanine. A normal dose of thiopurine and adjustment following the disease-specific guidelines is recommended. Refer to current guidelines for dosage and recommendations for each specific thiopurine drug at https://cpicpgx.org/guidelines/guideline-for-thiopurines-and-tpmt/."
          }
        ],
        "status": "final",
        "category": [
          {
            "coding": [
              {
                "system": "http://terminology.hl7.org/CodeSystem/observation-category",
                "code": "laboratory",
                "display": "Laboratory"
              }
            ]
          }
        ],
        "code": {
          "coding": [
            {
              "system": "http://loinc.org",
              "code": "53040-2",
              "display": "Genetic variation's effect on drug metabolism"
            }
          ]
        },
        "subject": {
          "reference": "urn:uuid:9ba16fd4-ac43-4764-89cc-f4e21f5cc2ef"
        },
        "performer": [
          {
            "reference": "urn:uuid:918ac52b-7fb1-482e-883e-74cebf6ad766"
          }
        ],
        "valueCodeableConcept": {
          "text": "High activity"
        },
        "derivedFrom": [
          {
            "reference": "urn:uuid:f2885ece-170e-4b83-92ca-2d09855dd989"
          }
        ],
        "component": [
          {
            "extension": [
              {
                "url": "http://hl7.org/fhir/uv/genomics-reporting/StructureDefinition/RelatedArtifact",
                "valueRelatedArtifact": {
                  "type": "justification",
                  "url": "https://cpicpgx.org/guidelines/guideline-for-thiopurines-and-tpmt/"
                }
              }
            ],
            "code": {
              "coding": [
                {
                  "system": "http://loinc.org",
                  "code": "51963-7",
                  "display": "Medication assessed"
                }
              ]
            },
            "valueCodeableConcept": {
              "coding": [
                {
                  "system": "http://ncimeta.nci.nih.gov",
                  "code": "C0004482",
                  "display": "azathioprine"
                }
              ]
            }
          },
          {
            "extension": [
              {
                "url": "http://hl7.org/fhir/uv/genomics-reporting/StructureDefinition/RelatedArtifact",
                "valueRelatedArtifact": {
                  "type": "justification",
                  "url": "https://cpicpgx.org/guidelines/guideline-for-thiopurines-and-tpmt/"
                }
              }
            ],
            "code": {
              "coding": [
                {
                  "system": "http://loinc.org",
                  "code": "51963-7",
                  "display": "Medication assessed"
                }
              ]
            },
            "valueCodeableConcept": {
              "coding": [
                {
                  "system": "http://ncimeta.nci.nih.gov",
                  "code": "C0000618",
                  "display": "mercaptopurine"
                }
              ]
            }
          },
          {
            "extension": [
              {
                "url": "http://hl7.org/fhir/uv/genomics-reporting/StructureDefinition/RelatedArtifact",
                "valueRelatedArtifact": {
                  "type": "justification",
                  "url": "https://cpicpgx.org/guidelines/guideline-for-thiopurines-and-tpmt/"
                }
              }
            ],
            "code": {
              "coding": [
                {
                  "system": "http://loinc.org",
                  "code": "51963-7",
                  "display": "Medication assessed"
                }
              ]
            },
            "valueCodeableConcept": {
              "coding": [
                {
                  "system": "http://ncimeta.nci.nih.gov",
                  "code": "C0039902",
                  "display": "thioguanine"
                }
              ]
            }
          }
        ]
      },
      "request": {
        "method": "POST",
        "url": "Observation"
      }
    },
    {
      "fullUrl": "urn:uuid:b9333827-8a09-4750-8ae1-f3c50360d94a",
      "resource": {
        "resourceType": "Observation",
        "meta": {
          "profile": [
            "http://hl7.org/fhir/uv/genomics-reporting/StructureDefinition/medication-metabolism"
          ]
        },
        "language": "en-US",
        "text": {
          "status": "generated",
          "div": "<div xmlns=\"http://www.w3.org/1999/xhtml\">{\n  &quot;resourceType&quot;: &quot;Observation&quot;,\n  &quot;meta&quot;: {\n    &quot;profile&quot;: [\n      &quot;http://hl7.org/fhir/uv/genomics-reporting/StructureDefinition/medication-metabolism&quot;\n    ]\n  },\n  &quot;language&quot;: &quot;en-US&quot;,\n  &quot;extension&quot;: [\n    {\n      &quot;url&quot;: &quot;http://namingsystem.org/fhir/StructureDefinition/interpretation-summary-text&quot;,\n      &quot;valueString&quot;: &quot;This individual is heterozygous for the low function allele in the CYP2C9 gene. Based on the genotype result, this patient is predicted to have intermediate CYP2C9 function.This individual is also homozygous for the variant allele for the VKORC1 gene. Expression level of the VKORC1 gene is associated with warfarin sensitivity. Based on the genotype result, this patient is predicted to have high sensitivity to warfarin.&quot;\n    }\n  ],\n  &quot;status&quot;: &quot;final&quot;,\n  &quot;category&quot;: [\n    {\n      &quot;coding&quot;: [\n        {\n          &quot;system&quot;: &quot;http://terminology.hl7.org/CodeSystem/observation-category&quot;,\n          &quot;code&quot;: &quot;laboratory&quot;,\n          &quot;display&quot;: &quot;Laboratory&quot;\n        }\n      ]\n    }\n  ],\n  &quot;code&quot;: {\n    &quot;coding&quot;: [\n      {\n        &quot;system&quot;: &quot;http://loinc.org&quot;,\n        &quot;code&quot;: &quot;53040-2&quot;,\n        &quot;display&quot;: &quot;Genetic variation's effect on drug metabolism&quot;\n      }\n    ]\n  },\n  &quot;subject&quot;: {\n    &quot;reference&quot;: &quot;urn:uuid:9ba16fd4-ac43-4764-89cc-f4e21f5cc2ef&quot;\n  },\n  &quot;performer&quot;: [\n    {\n      &quot;reference&quot;: &quot;urn:uuid:918ac52b-7fb1-482e-883e-74cebf6ad766&quot;\n    }\n  ],\n  &quot;valueCodeableConcept&quot;: {\n    &quot;coding&quot;: [\n      {\n        &quot;system&quot;: &quot;http://loinc.org&quot;,\n        &quot;code&quot;: &quot;LA10317-8&quot;,\n        &quot;display&quot;: &quot;Intermediate metabolizer&quot;\n      }\n    ]\n  },\n  &quot;derivedFrom&quot;: [\n    {\n      &quot;reference&quot;: &quot;urn:uuid:1003dd72-e6f0-4dab-ab5b-ab34bd97d8f0&quot;\n    },\n    {\n      &quot;reference&quot;: &quot;urn:uuid:89ef3337-cd93-495e-8496-afca4868c494&quot;\n    }\n  ],\n  &quot;component&quot;: [\n    {\n      &quot;extension&quot;: [\n        {\n          &quot;url&quot;: &quot;http://hl7.org/fhir/uv/genomics-reporting/StructureDefinition/RelatedArtifact&quot;,\n          &quot;valueRelatedArtifact&quot;: {\n            &quot;type&quot;: &quot;justification&quot;,\n            &quot;url&quot;: &quot;https://cpicpgx.org/guidelines/guideline-for-warfarin-and-cyp2c9-and-vkorc1/&quot;\n          }\n        }\n      ],\n      &quot;code&quot;: {\n        &quot;coding&quot;: [\n          {\n            &quot;system&quot;: &quot;http://loinc.org&quot;,\n            &quot;code&quot;: &quot;51963-7&quot;,\n            &quot;display&quot;: &quot;Medication assessed&quot;\n          }\n        ]\n      },\n      &quot;valueCodeableConcept&quot;: {\n        &quot;coding&quot;: [\n          {\n            &quot;system&quot;: &quot;http://ncimeta.nci.nih.gov&quot;,\n            &quot;code&quot;: &quot;C0043031&quot;,\n            &quot;display&quot;: &quot;warfarin&quot;\n          }\n        ]\n      }\n    }\n  ]\n}</div>"
        },
        "extension": [
          {
            "url": "http://namingsystem.org/fhir/StructureDefinition/interpretation-summary-text",
            "valueString": "This individual is heterozygous for the low function allele in the CYP2C9 gene. Based on the genotype result, this patient is predicted to have intermediate CYP2C9 function.This individual is also homozygous for the variant allele for the VKORC1 gene. Expression level of the VKORC1 gene is associated with warfarin sensitivity. Based on the genotype result, this patient is predicted to have high sensitivity to warfarin."
          }
        ],
        "status": "final",
        "category": [
          {
            "coding": [
              {
                "system": "http://terminology.hl7.org/CodeSystem/observation-category",
                "code": "laboratory",
                "display": "Laboratory"
              }
            ]
          }
        ],
        "code": {
          "coding": [
            {
              "system": "http://loinc.org",
              "code": "53040-2",
              "display": "Genetic variation's effect on drug metabolism"
            }
          ]
        },
        "subject": {
          "reference": "urn:uuid:9ba16fd4-ac43-4764-89cc-f4e21f5cc2ef"
        },
        "performer": [
          {
            "reference": "urn:uuid:918ac52b-7fb1-482e-883e-74cebf6ad766"
          }
        ],
        "valueCodeableConcept": {
          "coding": [
            {
              "system": "http://loinc.org",
              "code": "LA10317-8",
              "display": "Intermediate metabolizer"
            }
          ]
        },
        "derivedFrom": [
          {
            "reference": "urn:uuid:1003dd72-e6f0-4dab-ab5b-ab34bd97d8f0"
          },
          {
            "reference": "urn:uuid:89ef3337-cd93-495e-8496-afca4868c494"
          }
        ],
        "component": [
          {
            "extension": [
              {
                "url": "http://hl7.org/fhir/uv/genomics-reporting/StructureDefinition/RelatedArtifact",
                "valueRelatedArtifact": {
                  "type": "justification",
                  "url": "https://cpicpgx.org/guidelines/guideline-for-warfarin-and-cyp2c9-and-vkorc1/"
                }
              }
            ],
            "code": {
              "coding": [
                {
                  "system": "http://loinc.org",
                  "code": "51963-7",
                  "display": "Medication assessed"
                }
              ]
            },
            "valueCodeableConcept": {
              "coding": [
                {
                  "system": "http://ncimeta.nci.nih.gov",
                  "code": "C0043031",
                  "display": "warfarin"
                }
              ]
            }
          }
        ]
      },
      "request": {
        "method": "POST",
        "url": "Observation"
      }
    },
    {
      "fullUrl": "urn:uuid:2dcda423-504b-423e-9744-8aa30d02a82c",
      "resource": {
        "resourceType": "Observation",
        "meta": {
          "profile": [
            "http://hl7.org/fhir/uv/genomics-reporting/StructureDefinition/genotype"
          ]
        },
        "language": "en-US",
        "text": {
          "status": "generated",
          "div": "<div xmlns=\"http://www.w3.org/1999/xhtml\">{\n  &quot;resourceType&quot;: &quot;Observation&quot;,\n  &quot;meta&quot;: {\n    &quot;profile&quot;: [\n      &quot;http://hl7.org/fhir/uv/genomics-reporting/StructureDefinition/genotype&quot;\n    ]\n  },\n  &quot;language&quot;: &quot;en-US&quot;,\n  &quot;basedOn&quot;: [\n    {\n      &quot;reference&quot;: &quot;urn:uuid:33d81ef9-823e-4201-867f-7838e5e76004&quot;\n    }\n  ],\n  &quot;status&quot;: &quot;final&quot;,\n  &quot;category&quot;: [\n    {\n      &quot;coding&quot;: [\n        {\n          &quot;system&quot;: &quot;http://terminology.hl7.org/CodeSystem/observation-category&quot;,\n          &quot;code&quot;: &quot;laboratory&quot;,\n          &quot;display&quot;: &quot;Laboratory&quot;\n        }\n      ]\n    }\n  ],\n  &quot;code&quot;: {\n    &quot;coding&quot;: [\n      {\n        &quot;system&quot;: &quot;http://loinc.org&quot;,\n        &quot;code&quot;: &quot;84413-4&quot;,\n        &quot;display&quot;: &quot;genotype display name&quot;\n      }\n    ]\n  },\n  &quot;subject&quot;: {\n    &quot;reference&quot;: &quot;urn:uuid:9ba16fd4-ac43-4764-89cc-f4e21f5cc2ef&quot;\n  },\n  &quot;performer&quot;: [\n    {\n      &quot;reference&quot;: &quot;urn:uuid:918ac52b-7fb1-482e-883e-74cebf6ad766&quot;\n    }\n  ],\n  &quot;valueCodeableConcept&quot;: {\n    &quot;text&quot;: &quot;*1/*17&quot;\n  },\n  &quot;specimen&quot;: {\n    &quot;reference&quot;: &quot;urn:uuid:b3170068-c175-4e9b-96e2-3beae1553ebe&quot;\n  },\n  &quot;component&quot;: [\n    {\n      &quot;code&quot;: {\n        &quot;coding&quot;: [\n          {\n            &quot;system&quot;: &quot;http://loinc.org&quot;,\n            &quot;code&quot;: &quot;48018-6&quot;,\n            &quot;display&quot;: &quot;Gene studied [ID]&quot;\n          }\n        ]\n      },\n      &quot;valueCodeableConcept&quot;: {\n        &quot;coding&quot;: [\n          {\n            &quot;system&quot;: &quot;http://www.genenames.org/geneId&quot;,\n            &quot;code&quot;: &quot;HGNC:2621&quot;,\n            &quot;display&quot;: &quot;CYP2C19&quot;\n          }\n        ]\n      }\n    }\n  ]\n}</div>"
        },
        "basedOn": [
          {
            "reference": "urn:uuid:33d81ef9-823e-4201-867f-7838e5e76004"
          }
        ],
        "status": "final",
        "category": [
          {
            "coding": [
              {
                "system": "http://terminology.hl7.org/CodeSystem/observation-category",
                "code": "laboratory",
                "display": "Laboratory"
              }
            ]
          }
        ],
        "code": {
          "coding": [
            {
              "system": "http://loinc.org",
              "code": "84413-4",
              "display": "genotype display name"
            }
          ]
        },
        "subject": {
          "reference": "urn:uuid:9ba16fd4-ac43-4764-89cc-f4e21f5cc2ef"
        },
        "performer": [
          {
            "reference": "urn:uuid:918ac52b-7fb1-482e-883e-74cebf6ad766"
          }
        ],
        "valueCodeableConcept": {
          "text": "*1/*17"
        },
        "specimen": {
          "reference": "urn:uuid:b3170068-c175-4e9b-96e2-3beae1553ebe"
        },
        "component": [
          {
            "code": {
              "coding": [
                {
                  "system": "http://loinc.org",
                  "code": "48018-6",
                  "display": "Gene studied [ID]"
                }
              ]
            },
            "valueCodeableConcept": {
              "coding": [
                {
                  "system": "http://www.genenames.org/geneId",
                  "code": "HGNC:2621",
                  "display": "CYP2C19"
                }
              ]
            }
          }
        ]
      },
      "request": {
        "method": "POST",
        "url": "Observation"
      }
    },
    {
      "fullUrl": "urn:uuid:b6e35050-eb43-4128-9750-0f1db71d306e",
      "resource": {
        "resourceType": "Observation",
        "meta": {
          "profile": [
            "http://hl7.org/fhir/uv/genomics-reporting/StructureDefinition/genotype"
          ]
        },
        "language": "en-US",
        "text": {
          "status": "generated",
          "div": "<div xmlns=\"http://www.w3.org/1999/xhtml\">{\n  &quot;resourceType&quot;: &quot;Observation&quot;,\n  &quot;meta&quot;: {\n    &quot;profile&quot;: [\n      &quot;http://hl7.org/fhir/uv/genomics-reporting/StructureDefinition/genotype&quot;\n    ]\n  },\n  &quot;language&quot;: &quot;en-US&quot;,\n  &quot;basedOn&quot;: [\n    {\n      &quot;reference&quot;: &quot;urn:uuid:33d81ef9-823e-4201-867f-7838e5e76004&quot;\n    }\n  ],\n  &quot;status&quot;: &quot;final&quot;,\n  &quot;category&quot;: [\n    {\n      &quot;coding&quot;: [\n        {\n          &quot;system&quot;: &quot;http://terminology.hl7.org/CodeSystem/observation-category&quot;,\n          &quot;code&quot;: &quot;laboratory&quot;,\n          &quot;display&quot;: &quot;Laboratory&quot;\n        }\n      ]\n    }\n  ],\n  &quot;code&quot;: {\n    &quot;coding&quot;: [\n      {\n        &quot;system&quot;: &quot;http://loinc.org&quot;,\n        &quot;code&quot;: &quot;84413-4&quot;,\n        &quot;display&quot;: &quot;genotype display name&quot;\n      }\n    ]\n  },\n  &quot;subject&quot;: {\n    &quot;reference&quot;: &quot;urn:uuid:9ba16fd4-ac43-4764-89cc-f4e21f5cc2ef&quot;\n  },\n  &quot;performer&quot;: [\n    {\n      &quot;reference&quot;: &quot;urn:uuid:918ac52b-7fb1-482e-883e-74cebf6ad766&quot;\n    }\n  ],\n  &quot;valueCodeableConcept&quot;: {\n    &quot;text&quot;: &quot;*1/*1&quot;\n  },\n  &quot;specimen&quot;: {\n    &quot;reference&quot;: &quot;urn:uuid:b3170068-c175-4e9b-96e2-3beae1553ebe&quot;\n  },\n  &quot;component&quot;: [\n    {\n      &quot;code&quot;: {\n        &quot;coding&quot;: [\n          {\n            &quot;system&quot;: &quot;http://loinc.org&quot;,\n            &quot;code&quot;: &quot;48018-6&quot;,\n            &quot;display&quot;: &quot;Gene studied [ID]&quot;\n          }\n        ]\n      },\n      &quot;valueCodeableConcept&quot;: {\n        &quot;coding&quot;: [\n          {\n            &quot;system&quot;: &quot;http://www.genenames.org/geneId&quot;,\n            &quot;code&quot;: &quot;HGNC:3012&quot;,\n            &quot;display&quot;: &quot;DPYD&quot;\n          }\n        ]\n      }\n    }\n  ]\n}</div>"
        },
        "basedOn": [
          {
            "reference": "urn:uuid:33d81ef9-823e-4201-867f-7838e5e76004"
          }
        ],
        "status": "final",
        "category": [
          {
            "coding": [
              {
                "system": "http://terminology.hl7.org/CodeSystem/observation-category",
                "code": "laboratory",
                "display": "Laboratory"
              }
            ]
          }
        ],
        "code": {
          "coding": [
            {
              "system": "http://loinc.org",
              "code": "84413-4",
              "display": "genotype display name"
            }
          ]
        },
        "subject": {
          "reference": "urn:uuid:9ba16fd4-ac43-4764-89cc-f4e21f5cc2ef"
        },
        "performer": [
          {
            "reference": "urn:uuid:918ac52b-7fb1-482e-883e-74cebf6ad766"
          }
        ],
        "valueCodeableConcept": {
          "text": "*1/*1"
        },
        "specimen": {
          "reference": "urn:uuid:b3170068-c175-4e9b-96e2-3beae1553ebe"
        },
        "component": [
          {
            "code": {
              "coding": [
                {
                  "system": "http://loinc.org",
                  "code": "48018-6",
                  "display": "Gene studied [ID]"
                }
              ]
            },
            "valueCodeableConcept": {
              "coding": [
                {
                  "system": "http://www.genenames.org/geneId",
                  "code": "HGNC:3012",
                  "display": "DPYD"
                }
              ]
            }
          }
        ]
      },
      "request": {
        "method": "POST",
        "url": "Observation"
      }
    },
    {
      "fullUrl": "urn:uuid:ca47d9af-2945-4b7d-96e6-fe901909784e",
      "resource": {
        "resourceType": "Observation",
        "meta": {
          "profile": [
            "http://hl7.org/fhir/uv/genomics-reporting/StructureDefinition/genotype"
          ]
        },
        "language": "en-US",
        "text": {
          "status": "generated",
          "div": "<div xmlns=\"http://www.w3.org/1999/xhtml\">{\n  &quot;resourceType&quot;: &quot;Observation&quot;,\n  &quot;meta&quot;: {\n    &quot;profile&quot;: [\n      &quot;http://hl7.org/fhir/uv/genomics-reporting/StructureDefinition/genotype&quot;\n    ]\n  },\n  &quot;language&quot;: &quot;en-US&quot;,\n  &quot;basedOn&quot;: [\n    {\n      &quot;reference&quot;: &quot;urn:uuid:33d81ef9-823e-4201-867f-7838e5e76004&quot;\n    }\n  ],\n  &quot;status&quot;: &quot;final&quot;,\n  &quot;category&quot;: [\n    {\n      &quot;coding&quot;: [\n        {\n          &quot;system&quot;: &quot;http://terminology.hl7.org/CodeSystem/observation-category&quot;,\n          &quot;code&quot;: &quot;laboratory&quot;,\n          &quot;display&quot;: &quot;Laboratory&quot;\n        }\n      ]\n    }\n  ],\n  &quot;code&quot;: {\n    &quot;coding&quot;: [\n      {\n        &quot;system&quot;: &quot;http://loinc.org&quot;,\n        &quot;code&quot;: &quot;84413-4&quot;,\n        &quot;display&quot;: &quot;genotype display name&quot;\n      }\n    ]\n  },\n  &quot;subject&quot;: {\n    &quot;reference&quot;: &quot;urn:uuid:9ba16fd4-ac43-4764-89cc-f4e21f5cc2ef&quot;\n  },\n  &quot;performer&quot;: [\n    {\n      &quot;reference&quot;: &quot;urn:uuid:918ac52b-7fb1-482e-883e-74cebf6ad766&quot;\n    }\n  ],\n  &quot;valueCodeableConcept&quot;: {\n    &quot;text&quot;: &quot;C/T&quot;\n  },\n  &quot;specimen&quot;: {\n    &quot;reference&quot;: &quot;urn:uuid:b3170068-c175-4e9b-96e2-3beae1553ebe&quot;\n  },\n  &quot;component&quot;: [\n    {\n      &quot;code&quot;: {\n        &quot;coding&quot;: [\n          {\n            &quot;system&quot;: &quot;http://loinc.org&quot;,\n            &quot;code&quot;: &quot;48018-6&quot;,\n            &quot;display&quot;: &quot;Gene studied [ID]&quot;\n          }\n        ]\n      },\n      &quot;valueCodeableConcept&quot;: {\n        &quot;coding&quot;: [\n          {\n            &quot;system&quot;: &quot;http://www.genenames.org/geneId&quot;,\n            &quot;code&quot;: &quot;HGNC:18365&quot;,\n            &quot;display&quot;: &quot;IFNL3&quot;\n          }\n        ]\n      }\n    }\n  ]\n}</div>"
        },
        "basedOn": [
          {
            "reference": "urn:uuid:33d81ef9-823e-4201-867f-7838e5e76004"
          }
        ],
        "status": "final",
        "category": [
          {
            "coding": [
              {
                "system": "http://terminology.hl7.org/CodeSystem/observation-category",
                "code": "laboratory",
                "display": "Laboratory"
              }
            ]
          }
        ],
        "code": {
          "coding": [
            {
              "system": "http://loinc.org",
              "code": "84413-4",
              "display": "genotype display name"
            }
          ]
        },
        "subject": {
          "reference": "urn:uuid:9ba16fd4-ac43-4764-89cc-f4e21f5cc2ef"
        },
        "performer": [
          {
            "reference": "urn:uuid:918ac52b-7fb1-482e-883e-74cebf6ad766"
          }
        ],
        "valueCodeableConcept": {
          "text": "C/T"
        },
        "specimen": {
          "reference": "urn:uuid:b3170068-c175-4e9b-96e2-3beae1553ebe"
        },
        "component": [
          {
            "code": {
              "coding": [
                {
                  "system": "http://loinc.org",
                  "code": "48018-6",
                  "display": "Gene studied [ID]"
                }
              ]
            },
            "valueCodeableConcept": {
              "coding": [
                {
                  "system": "http://www.genenames.org/geneId",
                  "code": "HGNC:18365",
                  "display": "IFNL3"
                }
              ]
            }
          }
        ]
      },
      "request": {
        "method": "POST",
        "url": "Observation"
      }
    },
    {
      "fullUrl": "urn:uuid:9e8b00b1-d283-4204-8372-141c65a200bb",
      "resource": {
        "resourceType": "Observation",
        "meta": {
          "profile": [
            "http://hl7.org/fhir/uv/genomics-reporting/StructureDefinition/genotype"
          ]
        },
        "language": "en-US",
        "text": {
          "status": "generated",
          "div": "<div xmlns=\"http://www.w3.org/1999/xhtml\">{\n  &quot;resourceType&quot;: &quot;Observation&quot;,\n  &quot;meta&quot;: {\n    &quot;profile&quot;: [\n      &quot;http://hl7.org/fhir/uv/genomics-reporting/StructureDefinition/genotype&quot;\n    ]\n  },\n  &quot;language&quot;: &quot;en-US&quot;,\n  &quot;basedOn&quot;: [\n    {\n      &quot;reference&quot;: &quot;urn:uuid:33d81ef9-823e-4201-867f-7838e5e76004&quot;\n    }\n  ],\n  &quot;status&quot;: &quot;final&quot;,\n  &quot;category&quot;: [\n    {\n      &quot;coding&quot;: [\n        {\n          &quot;system&quot;: &quot;http://terminology.hl7.org/CodeSystem/observation-category&quot;,\n          &quot;code&quot;: &quot;laboratory&quot;,\n          &quot;display&quot;: &quot;Laboratory&quot;\n        }\n      ]\n    }\n  ],\n  &quot;code&quot;: {\n    &quot;coding&quot;: [\n      {\n        &quot;system&quot;: &quot;http://loinc.org&quot;,\n        &quot;code&quot;: &quot;84413-4&quot;,\n        &quot;display&quot;: &quot;genotype display name&quot;\n      }\n    ]\n  },\n  &quot;subject&quot;: {\n    &quot;reference&quot;: &quot;urn:uuid:9ba16fd4-ac43-4764-89cc-f4e21f5cc2ef&quot;\n  },\n  &quot;performer&quot;: [\n    {\n      &quot;reference&quot;: &quot;urn:uuid:918ac52b-7fb1-482e-883e-74cebf6ad766&quot;\n    }\n  ],\n  &quot;valueCodeableConcept&quot;: {\n    &quot;text&quot;: &quot;T/T&quot;\n  },\n  &quot;specimen&quot;: {\n    &quot;reference&quot;: &quot;urn:uuid:b3170068-c175-4e9b-96e2-3beae1553ebe&quot;\n  },\n  &quot;component&quot;: [\n    {\n      &quot;code&quot;: {\n        &quot;coding&quot;: [\n          {\n            &quot;system&quot;: &quot;http://loinc.org&quot;,\n            &quot;code&quot;: &quot;48018-6&quot;,\n            &quot;display&quot;: &quot;Gene studied [ID]&quot;\n          }\n        ]\n      },\n      &quot;valueCodeableConcept&quot;: {\n        &quot;coding&quot;: [\n          {\n            &quot;system&quot;: &quot;http://www.genenames.org/geneId&quot;,\n            &quot;code&quot;: &quot;HGNC:10959&quot;,\n            &quot;display&quot;: &quot;SLCO1B1&quot;\n          }\n        ]\n      }\n    }\n  ]\n}</div>"
        },
        "basedOn": [
          {
            "reference": "urn:uuid:33d81ef9-823e-4201-867f-7838e5e76004"
          }
        ],
        "status": "final",
        "category": [
          {
            "coding": [
              {
                "system": "http://terminology.hl7.org/CodeSystem/observation-category",
                "code": "laboratory",
                "display": "Laboratory"
              }
            ]
          }
        ],
        "code": {
          "coding": [
            {
              "system": "http://loinc.org",
              "code": "84413-4",
              "display": "genotype display name"
            }
          ]
        },
        "subject": {
          "reference": "urn:uuid:9ba16fd4-ac43-4764-89cc-f4e21f5cc2ef"
        },
        "performer": [
          {
            "reference": "urn:uuid:918ac52b-7fb1-482e-883e-74cebf6ad766"
          }
        ],
        "valueCodeableConcept": {
          "text": "T/T"
        },
        "specimen": {
          "reference": "urn:uuid:b3170068-c175-4e9b-96e2-3beae1553ebe"
        },
        "component": [
          {
            "code": {
              "coding": [
                {
                  "system": "http://loinc.org",
                  "code": "48018-6",
                  "display": "Gene studied [ID]"
                }
              ]
            },
            "valueCodeableConcept": {
              "coding": [
                {
                  "system": "http://www.genenames.org/geneId",
                  "code": "HGNC:10959",
                  "display": "SLCO1B1"
                }
              ]
            }
          }
        ]
      },
      "request": {
        "method": "POST",
        "url": "Observation"
      }
    },
    {
      "fullUrl": "urn:uuid:f2885ece-170e-4b83-92ca-2d09855dd989",
      "resource": {
        "resourceType": "Observation",
        "meta": {
          "profile": [
            "http://hl7.org/fhir/uv/genomics-reporting/StructureDefinition/genotype"
          ]
        },
        "language": "en-US",
        "text": {
          "status": "generated",
          "div": "<div xmlns=\"http://www.w3.org/1999/xhtml\">{\n  &quot;resourceType&quot;: &quot;Observation&quot;,\n  &quot;meta&quot;: {\n    &quot;profile&quot;: [\n      &quot;http://hl7.org/fhir/uv/genomics-reporting/StructureDefinition/genotype&quot;\n    ]\n  },\n  &quot;language&quot;: &quot;en-US&quot;,\n  &quot;basedOn&quot;: [\n    {\n      &quot;reference&quot;: &quot;urn:uuid:33d81ef9-823e-4201-867f-7838e5e76004&quot;\n    }\n  ],\n  &quot;status&quot;: &quot;final&quot;,\n  &quot;category&quot;: [\n    {\n      &quot;coding&quot;: [\n        {\n          &quot;system&quot;: &quot;http://terminology.hl7.org/CodeSystem/observation-category&quot;,\n          &quot;code&quot;: &quot;laboratory&quot;,\n          &quot;display&quot;: &quot;Laboratory&quot;\n        }\n      ]\n    }\n  ],\n  &quot;code&quot;: {\n    &quot;coding&quot;: [\n      {\n        &quot;system&quot;: &quot;http://loinc.org&quot;,\n        &quot;code&quot;: &quot;84413-4&quot;,\n        &quot;display&quot;: &quot;genotype display name&quot;\n      }\n    ]\n  },\n  &quot;subject&quot;: {\n    &quot;reference&quot;: &quot;urn:uuid:9ba16fd4-ac43-4764-89cc-f4e21f5cc2ef&quot;\n  },\n  &quot;performer&quot;: [\n    {\n      &quot;reference&quot;: &quot;urn:uuid:918ac52b-7fb1-482e-883e-74cebf6ad766&quot;\n    }\n  ],\n  &quot;valueCodeableConcept&quot;: {\n    &quot;text&quot;: &quot;*1/*1&quot;\n  },\n  &quot;specimen&quot;: {\n    &quot;reference&quot;: &quot;urn:uuid:b3170068-c175-4e9b-96e2-3beae1553ebe&quot;\n  },\n  &quot;component&quot;: [\n    {\n      &quot;code&quot;: {\n        &quot;coding&quot;: [\n          {\n            &quot;system&quot;: &quot;http://loinc.org&quot;,\n            &quot;code&quot;: &quot;48018-6&quot;,\n            &quot;display&quot;: &quot;Gene studied [ID]&quot;\n          }\n        ]\n      },\n      &quot;valueCodeableConcept&quot;: {\n        &quot;coding&quot;: [\n          {\n            &quot;system&quot;: &quot;http://www.genenames.org/geneId&quot;,\n            &quot;code&quot;: &quot;HGNC:12014&quot;,\n            &quot;display&quot;: &quot;TPMT&quot;\n          }\n        ]\n      }\n    }\n  ]\n}</div>"
        },
        "basedOn": [
          {
            "reference": "urn:uuid:33d81ef9-823e-4201-867f-7838e5e76004"
          }
        ],
        "status": "final",
        "category": [
          {
            "coding": [
              {
                "system": "http://terminology.hl7.org/CodeSystem/observation-category",
                "code": "laboratory",
                "display": "Laboratory"
              }
            ]
          }
        ],
        "code": {
          "coding": [
            {
              "system": "http://loinc.org",
              "code": "84413-4",
              "display": "genotype display name"
            }
          ]
        },
        "subject": {
          "reference": "urn:uuid:9ba16fd4-ac43-4764-89cc-f4e21f5cc2ef"
        },
        "performer": [
          {
            "reference": "urn:uuid:918ac52b-7fb1-482e-883e-74cebf6ad766"
          }
        ],
        "valueCodeableConcept": {
          "text": "*1/*1"
        },
        "specimen": {
          "reference": "urn:uuid:b3170068-c175-4e9b-96e2-3beae1553ebe"
        },
        "component": [
          {
            "code": {
              "coding": [
                {
                  "system": "http://loinc.org",
                  "code": "48018-6",
                  "display": "Gene studied [ID]"
                }
              ]
            },
            "valueCodeableConcept": {
              "coding": [
                {
                  "system": "http://www.genenames.org/geneId",
                  "code": "HGNC:12014",
                  "display": "TPMT"
                }
              ]
            }
          }
        ]
      },
      "request": {
        "method": "POST",
        "url": "Observation"
      }
    },
    {
      "fullUrl": "urn:uuid:1003dd72-e6f0-4dab-ab5b-ab34bd97d8f0",
      "resource": {
        "resourceType": "Observation",
        "meta": {
          "profile": [
            "http://hl7.org/fhir/uv/genomics-reporting/StructureDefinition/genotype"
          ]
        },
        "language": "en-US",
        "text": {
          "status": "generated",
          "div": "<div xmlns=\"http://www.w3.org/1999/xhtml\">{\n  &quot;resourceType&quot;: &quot;Observation&quot;,\n  &quot;meta&quot;: {\n    &quot;profile&quot;: [\n      &quot;http://hl7.org/fhir/uv/genomics-reporting/StructureDefinition/genotype&quot;\n    ]\n  },\n  &quot;language&quot;: &quot;en-US&quot;,\n  &quot;basedOn&quot;: [\n    {\n      &quot;reference&quot;: &quot;urn:uuid:33d81ef9-823e-4201-867f-7838e5e76004&quot;\n    }\n  ],\n  &quot;status&quot;: &quot;final&quot;,\n  &quot;category&quot;: [\n    {\n      &quot;coding&quot;: [\n        {\n          &quot;system&quot;: &quot;http://terminology.hl7.org/CodeSystem/observation-category&quot;,\n          &quot;code&quot;: &quot;laboratory&quot;,\n          &quot;display&quot;: &quot;Laboratory&quot;\n        }\n      ]\n    }\n  ],\n  &quot;code&quot;: {\n    &quot;coding&quot;: [\n      {\n        &quot;system&quot;: &quot;http://loinc.org&quot;,\n        &quot;code&quot;: &quot;84413-4&quot;,\n        &quot;display&quot;: &quot;genotype display name&quot;\n      }\n    ]\n  },\n  &quot;subject&quot;: {\n    &quot;reference&quot;: &quot;urn:uuid:9ba16fd4-ac43-4764-89cc-f4e21f5cc2ef&quot;\n  },\n  &quot;performer&quot;: [\n    {\n      &quot;reference&quot;: &quot;urn:uuid:918ac52b-7fb1-482e-883e-74cebf6ad766&quot;\n    }\n  ],\n  &quot;valueCodeableConcept&quot;: {\n    &quot;text&quot;: &quot;*1/*2&quot;\n  },\n  &quot;specimen&quot;: {\n    &quot;reference&quot;: &quot;urn:uuid:b3170068-c175-4e9b-96e2-3beae1553ebe&quot;\n  },\n  &quot;component&quot;: [\n    {\n      &quot;code&quot;: {\n        &quot;coding&quot;: [\n          {\n            &quot;system&quot;: &quot;http://loinc.org&quot;,\n            &quot;code&quot;: &quot;48018-6&quot;,\n            &quot;display&quot;: &quot;Gene studied [ID]&quot;\n          }\n        ]\n      },\n      &quot;valueCodeableConcept&quot;: {\n        &quot;coding&quot;: [\n          {\n            &quot;system&quot;: &quot;http://www.genenames.org/geneId&quot;,\n            &quot;code&quot;: &quot;HGNC:2623&quot;,\n            &quot;display&quot;: &quot;CYP2C9&quot;\n          }\n        ]\n      }\n    }\n  ]\n}</div>"
        },
        "basedOn": [
          {
            "reference": "urn:uuid:33d81ef9-823e-4201-867f-7838e5e76004"
          }
        ],
        "status": "final",
        "category": [
          {
            "coding": [
              {
                "system": "http://terminology.hl7.org/CodeSystem/observation-category",
                "code": "laboratory",
                "display": "Laboratory"
              }
            ]
          }
        ],
        "code": {
          "coding": [
            {
              "system": "http://loinc.org",
              "code": "84413-4",
              "display": "genotype display name"
            }
          ]
        },
        "subject": {
          "reference": "urn:uuid:9ba16fd4-ac43-4764-89cc-f4e21f5cc2ef"
        },
        "performer": [
          {
            "reference": "urn:uuid:918ac52b-7fb1-482e-883e-74cebf6ad766"
          }
        ],
        "valueCodeableConcept": {
          "text": "*1/*2"
        },
        "specimen": {
          "reference": "urn:uuid:b3170068-c175-4e9b-96e2-3beae1553ebe"
        },
        "component": [
          {
            "code": {
              "coding": [
                {
                  "system": "http://loinc.org",
                  "code": "48018-6",
                  "display": "Gene studied [ID]"
                }
              ]
            },
            "valueCodeableConcept": {
              "coding": [
                {
                  "system": "http://www.genenames.org/geneId",
                  "code": "HGNC:2623",
                  "display": "CYP2C9"
                }
              ]
            }
          }
        ]
      },
      "request": {
        "method": "POST",
        "url": "Observation"
      }
    },
    {
      "fullUrl": "urn:uuid:89ef3337-cd93-495e-8496-afca4868c494",
      "resource": {
        "resourceType": "Observation",
        "meta": {
          "profile": [
            "http://hl7.org/fhir/uv/genomics-reporting/StructureDefinition/genotype"
          ]
        },
        "language": "en-US",
        "text": {
          "status": "generated",
          "div": "<div xmlns=\"http://www.w3.org/1999/xhtml\">{\n  &quot;resourceType&quot;: &quot;Observation&quot;,\n  &quot;meta&quot;: {\n    &quot;profile&quot;: [\n      &quot;http://hl7.org/fhir/uv/genomics-reporting/StructureDefinition/genotype&quot;\n    ]\n  },\n  &quot;language&quot;: &quot;en-US&quot;,\n  &quot;basedOn&quot;: [\n    {\n      &quot;reference&quot;: &quot;urn:uuid:33d81ef9-823e-4201-867f-7838e5e76004&quot;\n    }\n  ],\n  &quot;status&quot;: &quot;final&quot;,\n  &quot;category&quot;: [\n    {\n      &quot;coding&quot;: [\n        {\n          &quot;system&quot;: &quot;http://terminology.hl7.org/CodeSystem/observation-category&quot;,\n          &quot;code&quot;: &quot;laboratory&quot;,\n          &quot;display&quot;: &quot;Laboratory&quot;\n        }\n      ]\n    }\n  ],\n  &quot;code&quot;: {\n    &quot;coding&quot;: [\n      {\n        &quot;system&quot;: &quot;http://loinc.org&quot;,\n        &quot;code&quot;: &quot;84413-4&quot;,\n        &quot;display&quot;: &quot;genotype display name&quot;\n      }\n    ]\n  },\n  &quot;subject&quot;: {\n    &quot;reference&quot;: &quot;urn:uuid:9ba16fd4-ac43-4764-89cc-f4e21f5cc2ef&quot;\n  },\n  &quot;performer&quot;: [\n    {\n      &quot;reference&quot;: &quot;urn:uuid:918ac52b-7fb1-482e-883e-74cebf6ad766&quot;\n    }\n  ],\n  &quot;valueCodeableConcept&quot;: {\n    &quot;text&quot;: &quot;T/T&quot;\n  },\n  &quot;specimen&quot;: {\n    &quot;reference&quot;: &quot;urn:uuid:b3170068-c175-4e9b-96e2-3beae1553ebe&quot;\n  },\n  &quot;component&quot;: [\n    {\n      &quot;code&quot;: {\n        &quot;coding&quot;: [\n          {\n            &quot;system&quot;: &quot;http://loinc.org&quot;,\n            &quot;code&quot;: &quot;48018-6&quot;,\n            &quot;display&quot;: &quot;Gene studied [ID]&quot;\n          }\n        ]\n      },\n      &quot;valueCodeableConcept&quot;: {\n        &quot;coding&quot;: [\n          {\n            &quot;system&quot;: &quot;http://www.genenames.org/geneId&quot;,\n            &quot;code&quot;: &quot;HGNC:23663&quot;,\n            &quot;display&quot;: &quot;VKORC1&quot;\n          }\n        ]\n      }\n    }\n  ]\n}</div>"
        },
        "basedOn": [
          {
            "reference": "urn:uuid:33d81ef9-823e-4201-867f-7838e5e76004"
          }
        ],
        "status": "final",
        "category": [
          {
            "coding": [
              {
                "system": "http://terminology.hl7.org/CodeSystem/observation-category",
                "code": "laboratory",
                "display": "Laboratory"
              }
            ]
          }
        ],
        "code": {
          "coding": [
            {
              "system": "http://loinc.org",
              "code": "84413-4",
              "display": "genotype display name"
            }
          ]
        },
        "subject": {
          "reference": "urn:uuid:9ba16fd4-ac43-4764-89cc-f4e21f5cc2ef"
        },
        "performer": [
          {
            "reference": "urn:uuid:918ac52b-7fb1-482e-883e-74cebf6ad766"
          }
        ],
        "valueCodeableConcept": {
          "text": "T/T"
        },
        "specimen": {
          "reference": "urn:uuid:b3170068-c175-4e9b-96e2-3beae1553ebe"
        },
        "component": [
          {
            "code": {
              "coding": [
                {
                  "system": "http://loinc.org",
                  "code": "48018-6",
                  "display": "Gene studied [ID]"
                }
              ]
            },
            "valueCodeableConcept": {
              "coding": [
                {
                  "system": "http://www.genenames.org/geneId",
                  "code": "HGNC:23663",
                  "display": "VKORC1"
                }
              ]
            }
          }
        ]
      },
      "request": {
        "method": "POST",
        "url": "Observation"
      }
    },
    {
      "fullUrl": "urn:uuid:4694bbda-2e92-4437-a487-c01672d7691c",
      "resource": {
        "resourceType": "Practitioner",
        "language": "en-US",
        "text": {
          "status": "generated",
          "div": "<div xmlns=\"http://www.w3.org/1999/xhtml\">{\n  &quot;resourceType&quot;: &quot;Practitioner&quot;,\n  &quot;language&quot;: &quot;en-US&quot;,\n  &quot;identifier&quot;: [\n    {\n      &quot;type&quot;: {\n        &quot;coding&quot;: [\n          {\n            &quot;system&quot;: &quot;http://terminology.hl7.org/CodeSystem/v2-0203&quot;,\n            &quot;code&quot;: &quot;NPI&quot;,\n            &quot;display&quot;: &quot;National provider identifier&quot;\n          }\n        ]\n      },\n      &quot;system&quot;: &quot;http://hl7.org/fhir/sid/us-npi&quot;,\n      &quot;value&quot;: &quot;1045097250479&quot;\n    }\n  ],\n  &quot;name&quot;: [\n    {\n      &quot;use&quot;: &quot;usual&quot;,\n      &quot;family&quot;: &quot;Doe&quot;,\n      &quot;given&quot;: [\n        &quot;John R&quot;\n      ],\n      &quot;suffix&quot;: [\n        &quot;M.D., FACMG&quot;\n      ]\n    }\n  ],\n  &quot;address&quot;: [\n    {\n      &quot;line&quot;: [\n        &quot;1111 TestAddress St&quot;\n      ],\n      &quot;city&quot;: &quot;Houston&quot;,\n      &quot;state&quot;: &quot;TX&quot;,\n      &quot;postalCode&quot;: &quot;77030&quot;,\n      &quot;country&quot;: &quot;USA&quot;\n    }\n  ],\n  &quot;qualification&quot;: [\n    {\n      &quot;identifier&quot;: [\n        {\n          &quot;type&quot;: {\n            &quot;coding&quot;: [\n              {\n                &quot;system&quot;: &quot;http://terminology.hl7.org/CodeSystem/v2-0203&quot;,\n                &quot;code&quot;: &quot;NPI&quot;,\n                &quot;display&quot;: &quot;National provider identifier&quot;\n              }\n            ]\n          },\n          &quot;system&quot;: &quot;http://hl7.org/fhir/sid/us-npi&quot;,\n          &quot;value&quot;: &quot;1045097250479&quot;\n        }\n      ],\n      &quot;code&quot;: {\n        &quot;coding&quot;: [\n          {\n            &quot;system&quot;: &quot;http://terminology.hl7.org/CodeSystem/v2-2.7-0360&quot;,\n            &quot;code&quot;: &quot;M.D.&quot;,\n            &quot;display&quot;: &quot;Doctor of Medicine&quot;\n          }\n        ]\n      }\n    },\n    {\n      &quot;code&quot;: {\n        &quot;text&quot;: &quot;ABMGG Certified Molecular Geneticist&quot;\n      }\n    }\n  ]\n}</div>"
        },
        "identifier": [
          {
            "type": {
              "coding": [
                {
                  "system": "http://terminology.hl7.org/CodeSystem/v2-0203",
                  "code": "NPI",
                  "display": "National provider identifier"
                }
              ]
            },
            "system": "http://hl7.org/fhir/sid/us-npi",
            "value": "1045097250479"
          }
        ],
        "name": [
          {
            "use": "usual",
            "family": "Doe",
            "given": [
              "John R"
            ],
            "suffix": [
              "M.D., FACMG"
            ]
          }
        ],
        "address": [
          {
            "line": [
              "1111 TestAddress St"
            ],
            "city": "Houston",
            "state": "TX",
            "postalCode": "77030",
            "country": "USA"
          }
        ],
        "qualification": [
          {
            "identifier": [
              {
                "type": {
                  "coding": [
                    {
                      "system": "http://terminology.hl7.org/CodeSystem/v2-0203",
                      "code": "NPI",
                      "display": "National provider identifier"
                    }
                  ]
                },
                "system": "http://hl7.org/fhir/sid/us-npi",
                "value": "1045097250479"
              }
            ],
            "code": {
              "coding": [
                {
                  "system": "http://terminology.hl7.org/CodeSystem/v2-2.7-0360",
                  "code": "M.D.",
                  "display": "Doctor of Medicine"
                }
              ]
            }
          },
          {
            "code": {
              "text": "ABMGG Certified Molecular Geneticist"
            }
          }
        ]
      },
      "request": {
        "method": "POST",
        "url": "Practitioner"
      }
    },
    {
      "fullUrl": "urn:uuid:54f88048-35b4-4c85-bc65-71e60d2e4d4a",
      "resource": {
        "resourceType": "Practitioner",
        "language": "en-US",
        "text": {
          "status": "generated",
          "div": "<div xmlns=\"http://www.w3.org/1999/xhtml\">{\n  &quot;resourceType&quot;: &quot;Practitioner&quot;,\n  &quot;language&quot;: &quot;en-US&quot;,\n  &quot;identifier&quot;: [\n    {\n      &quot;type&quot;: {\n        &quot;coding&quot;: [\n          {\n            &quot;system&quot;: &quot;http://terminology.hl7.org/CodeSystem/v2-0203&quot;,\n            &quot;code&quot;: &quot;NPI&quot;,\n            &quot;display&quot;: &quot;National provider identifier&quot;\n          }\n        ]\n      },\n      &quot;system&quot;: &quot;http://hl7.org/fhir/sid/us-npi&quot;,\n      &quot;value&quot;: &quot;1045097250478&quot;\n    }\n  ],\n  &quot;name&quot;: [\n    {\n      &quot;use&quot;: &quot;usual&quot;,\n      &quot;family&quot;: &quot;Doe&quot;,\n      &quot;given&quot;: [\n        &quot;Jane M&quot;\n      ],\n      &quot;suffix&quot;: [\n        &quot;M.D., FACMG&quot;\n      ]\n    }\n  ],\n  &quot;address&quot;: [\n    {\n      &quot;line&quot;: [\n        &quot;1111 TestAddress St&quot;\n      ],\n      &quot;city&quot;: &quot;Houston&quot;,\n      &quot;state&quot;: &quot;TX&quot;,\n      &quot;postalCode&quot;: &quot;77030&quot;,\n      &quot;country&quot;: &quot;USA&quot;\n    }\n  ],\n  &quot;qualification&quot;: [\n    {\n      &quot;identifier&quot;: [\n        {\n          &quot;type&quot;: {\n            &quot;coding&quot;: [\n              {\n                &quot;system&quot;: &quot;http://terminology.hl7.org/CodeSystem/v2-0203&quot;,\n                &quot;code&quot;: &quot;NPI&quot;,\n                &quot;display&quot;: &quot;National provider identifier&quot;\n              }\n            ]\n          },\n          &quot;system&quot;: &quot;http://hl7.org/fhir/sid/us-npi&quot;,\n          &quot;value&quot;: &quot;1045097250478&quot;\n        }\n      ],\n      &quot;code&quot;: {\n        &quot;coding&quot;: [\n          {\n            &quot;system&quot;: &quot;http://terminology.hl7.org/CodeSystem/v2-2.7-0360&quot;,\n            &quot;code&quot;: &quot;M.D.&quot;,\n            &quot;display&quot;: &quot;Doctor of Medicine&quot;\n          }\n        ]\n      }\n    },\n    {\n      &quot;code&quot;: {\n        &quot;text&quot;: &quot;ABMGG Certified Molecular Geneticist&quot;\n      }\n    }\n  ]\n}</div>"
        },
        "identifier": [
          {
            "type": {
              "coding": [
                {
                  "system": "http://terminology.hl7.org/CodeSystem/v2-0203",
                  "code": "NPI",
                  "display": "National provider identifier"
                }
              ]
            },
            "system": "http://hl7.org/fhir/sid/us-npi",
            "value": "1045097250478"
          }
        ],
        "name": [
          {
            "use": "usual",
            "family": "Doe",
            "given": [
              "Jane M"
            ],
            "suffix": [
              "M.D., FACMG"
            ]
          }
        ],
        "address": [
          {
            "line": [
              "1111 TestAddress St"
            ],
            "city": "Houston",
            "state": "TX",
            "postalCode": "77030",
            "country": "USA"
          }
        ],
        "qualification": [
          {
            "identifier": [
              {
                "type": {
                  "coding": [
                    {
                      "system": "http://terminology.hl7.org/CodeSystem/v2-0203",
                      "code": "NPI",
                      "display": "National provider identifier"
                    }
                  ]
                },
                "system": "http://hl7.org/fhir/sid/us-npi",
                "value": "1045097250478"
              }
            ],
            "code": {
              "coding": [
                {
                  "system": "http://terminology.hl7.org/CodeSystem/v2-2.7-0360",
                  "code": "M.D.",
                  "display": "Doctor of Medicine"
                }
              ]
            }
          },
          {
            "code": {
              "text": "ABMGG Certified Molecular Geneticist"
            }
          }
        ]
      },
      "request": {
        "method": "POST",
        "url": "Practitioner"
      }
    },
    {
      "fullUrl": "urn:uuid:918ac52b-7fb1-482e-883e-74cebf6ad766",
      "resource": {
        "resourceType": "Organization",
        "meta": {
          "profile": [
            "http://hl7.org/fhir/us/core/StructureDefinition/us-core-organization"
          ]
        },
        "language": "en-US",
        "text": {
          "status": "generated",
          "div": "<div xmlns=\"http://www.w3.org/1999/xhtml\"><p><b>Generated Narrative with Details</b></p><p><b>id</b>: Human Genome Sequencing Center Clinical Laboratory</p><p>1111 TestAddress St  Houston  TX 77030</p><p>Phone: 111.111.1111  Fax: 111.111.1111  www.namingsystem.org  email: questions@namingsystem.org</p><p>CAP# 8000000 / CLIA# 45000AAR250</p></div>"
        },
        "identifier": [
          {
            "system": "urn:oid:XXXXXXXX",
            "value": "XXXXX"
          },
          {
            "system": "http://www.namingsystem.org",
            "value": "XXXXX"
          }
        ],
        "active": true,
        "name": "Human Genome Sequencing Center Clinical Laboratory",
        "telecom": [
          {
            "system": "phone",
            "value": "(+1) 111-111-1111"
          },
          {
            "system": "fax",
            "value": "(+1) 111-111-1111"
          },
          {
            "system": "url",
            "value": "https://www.test.edu/"
          },
          {
            "system": "email",
            "value": "questions@test.edu"
          }
        ],
        "address": [
          {
            "line": [
              "1111 TestAddress St"
            ],
            "city": "Houston",
            "state": "TX",
            "postalCode": "77030",
            "country": "USA"
          }
        ],
        "partOf": {
          "reference": "urn:uuid:925c33e9-e357-4608-b190-4f7f49cdd1af"
        }
      },
      "request": {
        "method": "POST",
        "url": "Organization"
      }
    },
    {
      "fullUrl": "urn:uuid:925c33e9-e357-4608-b190-4f7f49cdd1af",
      "resource": {
        "resourceType": "Organization",
        "language": "en-US",
        "text": {
          "status": "generated",
          "div": "<div xmlns=\"http://www.w3.org/1999/xhtml\"><p><b>Generated Narrative with Details</b></p><p><b>id</b>: Baylor College of Medicine</p><p>1111 TestAddress St  Houston  TX 77030</p><p>Phone: (111) 111-1111  https://www.test.edu/ </p></div>"
        },
        "active": true,
        "name": "Baylor College of Medicine",
        "telecom": [
          {
            "system": "phone",
            "value": "(+1) 111-111-1111"
          },
          {
            "system": "url",
            "value": "https://www.test.edu/"
          }
        ],
        "address": [
          {
            "line": [
              "1111 TestAddress St"
            ],
            "city": "Houston",
            "state": "TX",
            "postalCode": "77030",
            "country": "USA"
          }
        ]
      },
      "request": {
        "method": "POST",
        "url": "Organization"
      }
    },
    {
      "fullUrl": "urn:uuid:508c18ac-1e6d-4b46-bec7-1538c00a435b",
      "resource": {
        "resourceType": "PractitionerRole",
        "language": "en-US",
        "text": {
          "status": "generated",
          "div": "<div xmlns=\"http://www.w3.org/1999/xhtml\">{\n  &quot;resourceType&quot;: &quot;PractitionerRole&quot;,\n  &quot;language&quot;: &quot;en-US&quot;,\n  &quot;practitioner&quot;: {\n    &quot;reference&quot;: &quot;urn:uuid:4694bbda-2e92-4437-a487-c01672d7691c&quot;\n  },\n  &quot;organization&quot;: {\n    &quot;reference&quot;: &quot;urn:uuid:918ac52b-7fb1-482e-883e-74cebf6ad766&quot;\n  },\n  &quot;code&quot;: [\n    {\n      &quot;coding&quot;: [\n        {\n          &quot;system&quot;: &quot;http://snomed.info/sct&quot;,\n          &quot;code&quot;: &quot;159141008&quot;,\n          &quot;display&quot;: &quot;Geneticist&quot;\n        }\n      ],\n      &quot;text&quot;: &quot;ABMGG Certified Molecular Geneticist, Assistant Laboratory Director&quot;\n    }\n  ]\n}</div>"
        },
        "practitioner": {
          "reference": "urn:uuid:4694bbda-2e92-4437-a487-c01672d7691c"
        },
        "organization": {
          "reference": "urn:uuid:918ac52b-7fb1-482e-883e-74cebf6ad766"
        },
        "code": [
          {
            "coding": [
              {
                "system": "http://snomed.info/sct",
                "code": "159141008",
                "display": "Geneticist"
              }
            ],
            "text": "ABMGG Certified Molecular Geneticist, Assistant Laboratory Director"
          }
        ]
      },
      "request": {
        "method": "POST",
        "url": "PractitionerRole"
      }
    },
    {
      "fullUrl": "urn:uuid:b11592f4-b3b4-49c7-bddb-023f457fb03d",
      "resource": {
        "resourceType": "PractitionerRole",
        "language": "en-US",
        "text": {
          "status": "generated",
          "div": "<div xmlns=\"http://www.w3.org/1999/xhtml\">{\n  &quot;resourceType&quot;: &quot;PractitionerRole&quot;,\n  &quot;language&quot;: &quot;en-US&quot;,\n  &quot;practitioner&quot;: {\n    &quot;reference&quot;: &quot;urn:uuid:54f88048-35b4-4c85-bc65-71e60d2e4d4a&quot;\n  },\n  &quot;organization&quot;: {\n    &quot;reference&quot;: &quot;urn:uuid:918ac52b-7fb1-482e-883e-74cebf6ad766&quot;\n  },\n  &quot;code&quot;: [\n    {\n      &quot;coding&quot;: [\n        {\n          &quot;system&quot;: &quot;http://snomed.info/sct&quot;,\n          &quot;code&quot;: &quot;159141008&quot;,\n          &quot;display&quot;: &quot;Geneticist&quot;\n        }\n      ],\n      &quot;text&quot;: &quot;ABMGG Certified Molecular Geneticist, Medical Director&quot;\n    }\n  ]\n}</div>"
        },
        "practitioner": {
          "reference": "urn:uuid:54f88048-35b4-4c85-bc65-71e60d2e4d4a"
        },
        "organization": {
          "reference": "urn:uuid:918ac52b-7fb1-482e-883e-74cebf6ad766"
        },
        "code": [
          {
            "coding": [
              {
                "system": "http://snomed.info/sct",
                "code": "159141008",
                "display": "Geneticist"
              }
            ],
            "text": "ABMGG Certified Molecular Geneticist, Medical Director"
          }
        ]
      },
      "request": {
        "method": "POST",
        "url": "PractitionerRole"
      }
    },
    {
      "fullUrl": "urn:uuid:0994755a-2c0c-4952-8e70-95be17504644",
      "resource": {
        "resourceType": "Task",
        "meta": {
          "profile": [
            "http://hl7.org/fhir/uv/genomics-reporting/StructureDefinition/task-rec-followup"
          ]
        },
        "language": "en-US",
        "text": {
          "status": "generated",
          "div": "<div xmlns=\"http://www.w3.org/1999/xhtml\">{\n  &quot;resourceType&quot;: &quot;Task&quot;,\n  &quot;meta&quot;: {\n    &quot;profile&quot;: [\n      &quot;http://hl7.org/fhir/uv/genomics-reporting/StructureDefinition/task-rec-followup&quot;\n    ]\n  },\n  &quot;language&quot;: &quot;en-US&quot;,\n  &quot;status&quot;: &quot;requested&quot;,\n  &quot;intent&quot;: &quot;proposal&quot;,\n  &quot;code&quot;: {\n    &quot;coding&quot;: [\n      {\n        &quot;system&quot;: &quot;http://loinc.org&quot;,\n        &quot;code&quot;: &quot;LA14020-4&quot;,\n        &quot;display&quot;: &quot;Genetic counseling recommended&quot;\n      }\n    ],\n    &quot;text&quot;: &quot;It is recommended that correlation of these findings with the clinical phenotype be performed. Genetic counseling for the patient and at-risk family members is recommended.&quot;\n  },\n  &quot;description&quot;: &quot;It is recommended that correlation of these findings with the clinical phenotype be performed. Genetic counseling for the patient and at-risk family members is recommended.&quot;,\n  &quot;for&quot;: {\n    &quot;reference&quot;: &quot;urn:uuid:9ba16fd4-ac43-4764-89cc-f4e21f5cc2ef&quot;\n  },\n  &quot;reasonReference&quot;: {\n    &quot;reference&quot;: &quot;urn:uuid:c851ad8a-bf71-4818-af0d-64c57c73043c&quot;\n  }\n}</div>"
        },
        "status": "requested",
        "intent": "proposal",
        "code": {
          "coding": [
            {
              "system": "http://loinc.org",
              "code": "LA14020-4",
              "display": "Genetic counseling recommended"
            }
          ],
          "text": "It is recommended that correlation of these findings with the clinical phenotype be performed. Genetic counseling for the patient and at-risk family members is recommended."
        },
        "description": "It is recommended that correlation of these findings with the clinical phenotype be performed. Genetic counseling for the patient and at-risk family members is recommended.",
        "for": {
          "reference": "urn:uuid:9ba16fd4-ac43-4764-89cc-f4e21f5cc2ef"
        },
        "reasonReference": {
          "reference": "urn:uuid:c851ad8a-bf71-4818-af0d-64c57c73043c"
        }
      },
      "request": {
        "method": "POST",
        "url": "Task"
      }
    },
    {
      "fullUrl": "urn:uuid:3294e5aa-40c9-41fe-8f91-6806b07818a1",
      "resource": {
        "resourceType": "PlanDefinition",
        "language": "en-US",
        "text": {
          "status": "generated",
          "div": "<div xmlns=\"http://www.w3.org/1999/xhtml\">{\n  &quot;resourceType&quot;: &quot;PlanDefinition&quot;,\n  &quot;language&quot;: &quot;en-US&quot;,\n  &quot;identifier&quot;: [\n    {\n      &quot;type&quot;: {\n        &quot;coding&quot;: [\n          {\n            &quot;system&quot;: &quot;http://terminology.hl7.org/CodeSystem/v2-0203&quot;,\n            &quot;code&quot;: &quot;FILL&quot;,\n            &quot;display&quot;: &quot;Filler Identifier&quot;\n          }\n        ]\n      },\n      &quot;system&quot;: &quot;https://namingsystem.org/lab-test-codes/&quot;,\n      &quot;value&quot;: &quot;eMERGE-Seq Panel Sequencing Report&quot;\n    }\n  ],\n  &quot;version&quot;: &quot;52_eMERGE-Seq&quot;,\n  &quot;title&quot;: &quot;eMERGE-Seq Panel Sequencing Report&quot;,\n  &quot;type&quot;: {\n    &quot;coding&quot;: [\n      {\n        &quot;system&quot;: &quot;http://terminology.hl7.org/CodeSystem/plan-definition-type&quot;,\n        &quot;code&quot;: &quot;protocol&quot;,\n        &quot;display&quot;: &quot;Protocol&quot;\n      }\n    ]\n  },\n  &quot;status&quot;: &quot;active&quot;,\n  &quot;description&quot;: &quot;This test interrogates the protein-coding and exon-splicing regions of 109 genes as well as 1551 single-nucleotide polymorphisms that may impact human health and disease. Clinical interpretation and reporting are provided for pathogenic and likely pathogenic variants for genes and single nucleotide polymorphisms as described in the methodology section.&quot;\n}</div>"
        },
        "identifier": [
          {
            "type": {
              "coding": [
                {
                  "system": "http://terminology.hl7.org/CodeSystem/v2-0203",
                  "code": "FILL",
                  "display": "Filler Identifier"
                }
              ]
            },
            "system": "https://namingsystem.org/lab-test-codes/",
            "value": "eMERGE-Seq Panel Sequencing Report"
          }
        ],
        "version": "52_eMERGE-Seq",
        "title": "eMERGE-Seq Panel Sequencing Report",
        "type": {
          "coding": [
            {
              "system": "http://terminology.hl7.org/CodeSystem/plan-definition-type",
              "code": "protocol",
              "display": "Protocol"
            }
          ]
        },
        "status": "active",
        "description": "This test interrogates the protein-coding and exon-splicing regions of 109 genes as well as 1551 single-nucleotide polymorphisms that may impact human health and disease. Clinical interpretation and reporting are provided for pathogenic and likely pathogenic variants for genes and single nucleotide polymorphisms as described in the methodology section.",
        "relatedArtifact": [
          {
            "type": "citation",
            "citation": "Illumina, Inc. (2011) Multiplexing Sample Preparation Guide (Part # 1005361 Rev. D). 2011."
          },
          {
            "type": "citation",
            "citation": "Roche NimbleGen, Inc. (2010) NimbleGen SeqCap EZ Exome Library SR User's Guide (Version 2.2)."
          },
          {
            "type": "citation",
            "citation": "Liang-Chu MM, Yu M, Haverty PM, Koeman J, Ziegle J, Lee M, Bourgon R, Neve RM. Human biosample authentication using the high-throughput, cost-effective SNPtrace(TM) system. PLoS One. 2015 Feb 25;10(2):e0116218."
          },
          {
            "type": "citation",
            "citation": "Reid JG, Carroll A, Veeraraghavan N, Dahdouli M, Sundquist A, English A, Bainbridge M, White S, Salerno W, Buhay C, Yu F, Muzny D, Daly R, Duyk G, Gibbs RA, Boerwinkle E. 2014. Launching genomics into the cloud: deployment of Mercury, a next generation sequence analysis pipeline. BMC bioinformatics, 15(1), p.1. PMID: 24475911."
          },
          {
            "type": "citation",
            "citation": "Li H. and Durbin R. (2009) Fast and accurate short read alignment with Burrows-Wheeler Transform. Bioinformatics, 25:1754-60. PMID:19451168."
          },
          {
            "type": "citation",
            "citation": "Richards S, Aziz N, Bale S, Bick D, Das S, Gastier-Foster J, Grody WW, Hegde M, Lyon E, Spector E, Voelkerding K, Rehm HL; ACMG Laboratory Quality Assurance Committee. Standards and guidelines for the interpretation of sequence variants: a joint consensus recommendation of the American College of Medical Genetics and Genomics and the Association for Molecular Pathology. Genetics in Medicine (2015) 17, 405-423. PMID: 25741868."
          }
        ],
        "action": [
          {
            "prefix": "1",
            "description": "1. eMERGE-Seq Version 2 NGS Panel: for the paired-end pre-capture library procedure, genome DNA is fragmented by sonicating genome DNA and ligating to the Illumina multiplexing PE adapters (reference 1).  The adapter-ligated DNA is then PCR amplified using primers with sequencing barcodes (indexes). For target enrichment capture procedure, the pre-capture library is enriched by hybridizing to biotin labeled in-solution probes&nbsp;(reference 2) at&nbsp; 56&deg;C for 16 - 19 hours.&nbsp; For massively parallel sequencing, the post-capture library DNA is subjected to sequence analysis on Illumina HiSeq platform for 100 bp paired-end reads. The following quality control metrics of the sequencing data are generally achieved: &gt;70% of reads aligned to target, &gt;99% target base covered at &gt;20X, &gt;98% target base covered at &gt;40X, average coverage of target bases &gt;200X. SNP concordance to SNPTrace genotype array: &gt;99%. This test may not provide detection of certain genes or portions of certain genes due to local sequence characteristics or the presence of closely related pseudogenes. Gross deletions or duplications, changes from repetitive sequences may not be accurately identified by this methodology. Genomic rearrangements cannot be detected by this assay."
          },
          {
            "prefix": "2",
            "description": "2. As a quality control measure, the individual's DNA is also analyzed by a SNP-array (Fluidigm SNPTrace panel (reference 3) ). The SNP data are compared with the NGS panel data to ensure correct sample identification and to assess sequencing quality."
          },
          {
            "prefix": "3",
            "description": "3. Data are analyzed by the Mercury 3.4 (reference 4) pipeline. The output data from Illumina HiSeq are converted from bcl file to FastQ file by Illumina bcl2fastq 1.8.3 software, and mapped to the hg19 human genome reference by the BWA program (reference 5). The variant calls are performed using Atlas-SNP and Atlas-indel developed in-house by BCM HGSC. Copy number variants were detected using Atlas-pcnv v0, developed in-house by the BCM HGSC. Variant annotations are performed using the Cassandra tool, developed in-house.  Neptune version $VERSION was used to match variants against curated variants in the VIP database version [2020-04-17-14-17-00.vip] and generate this report.**"
          },
          {
            "prefix": "4",
            "description": "4. The variants were interpreted according to ACMG guidelines (reference 6) and patient phenotypes.  Synonymous variants, intronic variants not affecting splicing site, and common benign variants are excluded from interpretation unless they were previously reported as pathogenic variants. Reviewed variants are added to the VIP database for inclusion on future reports.  It should be noted that the interpretation of the data is based on our current understanding of genes and variants at the time of reporting."
          },
          {
            "prefix": "5",
            "description": "Clinical interpretation and reporting are provided for pathogenic and likely pathogenic variants as requested by XXXXX Organization for the following 68 medically actionable genes: ACTA2, ACTC1, APC, APOB, BMPR1A, BRCA1, BRCA2, CACNA1A, CACNA1S, COL3A1, COL5A1, DSC2, DSG2, DSP, FBN1, GLA, HNF1A, HNF1B, KCNE1, KCNH2, KCNJ2, KCNQ1, LDLR, LMNA, MEN1, MLH1, MSH2, MSH6, MUTYH, MYBPC3, MYH11, MYH7, MYL2, MYL3, MYLK, NF2, OTC, PALB2, PCSK9, PKP2, PMS2, POLD1, POLE, PRKAG2, PTEN, RB1, RET, RYR1, RYR2, SCN5A, SDHAF2, SDHB, SDHC, SDHD, SMAD3, SMAD4, STK11, TGFBR1, TGFBR2, TMEM43, TNNI3, TNNT2, TP53, TPM1, TSC1, TSC2, VHL, WT1, the following non medically actionable genes: ANK2, ATM, ATP1A2, BMPR2, CACNA1C, CFH, CFTR, CHEK2, FLG, MC4R, MTHFR, NTRK1, SCN1A, SCN9A, SERPINA1, SLC2A10, TCF4, TCIRG1, TTR, TYK2, UMOD, VDR, the following medically actionable SNPs: rs77931234, rs387906225, rs79761867, rs386834233, rs113993962, rs397509431, rs6467, rs6025, rs80338898, rs1801175, rs1800562, rs28940579, rs61752717, rs193922376; and non medically actionable SNPs: rs151344623, rs76151636, rs111033258, rs786205104, rs786205103, rs147394623, rs121964990, rs121965064, rs121965063, rs104886456, rs201227603, rs74315447, rs61755320, rs724159981. For autosomal recessive disorders, only homozygous or biallelic variants will be returned. Variants in exon 3 of the FLG gene are not reported."
          },
          {
            "prefix": "6",
            "description": "5. Variants related to patient phenotypes are confirmed by Sanger sequencing if the variant has been observed and confirmed fewer than 5 times by our laboratory or the Baylor Genetics Laboratory. Sanger confirmation is noted in the 'Notes' section of the tables if performed."
          },
          {
            "prefix": "7",
            "description": "** The VIP variant database was developed in conjunction with Baylor Genetics and the Partners Healthcare Laboratory for Molecular Medicine."
          }
        ]
      },
      "request": {
        "method": "POST",
        "url": "PlanDefinition"
      }
    },
    {
      "resource": {
        "resourceType": "DiagnosticReport",
        "meta": {
          "profile": [
            "http://hl7.org/fhir/uv/genomics-reporting/StructureDefinition/diagnosticreport"
          ]
        },
        "language": "en-US",
        "text": {
          "status": "generated",
          "div": "<div xmlns=\"http://www.w3.org/1999/xhtml\">{\n  &quot;resourceType&quot;: &quot;DiagnosticReport&quot;,\n  &quot;meta&quot;: {\n    &quot;profile&quot;: [\n      &quot;http://hl7.org/fhir/uv/genomics-reporting/StructureDefinition/diagnosticreport&quot;\n    ]\n  },\n  &quot;language&quot;: &quot;en-US&quot;,\n  &quot;extension&quot;: [\n    {\n      &quot;url&quot;: &quot;http://namingsystem.org/fhir/StructureDefinition/test-disclaimer&quot;,\n      &quot;valueString&quot;: &quot;This test was developed and its performance determined by this laboratory. It has not been cleared or approved by U.S. Food and Drug Administration. Since FDA is not required for clinical use of this test, this laboratory has established and validated the test's accuracy and precision, pursuant to the requirement of CLIA '88. This laboratory is licensed and/or accredited under CLIA and CAP (CAP# 8000000 / CLIA# 4500000250).&quot;\n    },\n    {\n      &quot;url&quot;: &quot;http://hl7.org/fhir/uv/genomics-reporting/StructureDefinition/recommendedAction&quot;,\n      &quot;valueReference&quot;: {\n        &quot;reference&quot;: &quot;urn:uuid:0994755a-2c0c-4952-8e70-95be17504644&quot;\n      }\n    }\n  ],\n  &quot;identifier&quot;: [\n    {\n      &quot;type&quot;: {\n        &quot;coding&quot;: [\n          {\n            &quot;system&quot;: &quot;http://terminology.hl7.org/CodeSystem/v2-0203&quot;,\n            &quot;code&quot;: &quot;FILL&quot;,\n            &quot;display&quot;: &quot;Filler Identifier&quot;\n          }\n        ]\n      },\n      &quot;system&quot;: &quot;http://namingsystem.org/&quot;,\n      &quot;value&quot;: &quot;1587100000.54&quot;\n    }\n  ],\n  &quot;basedOn&quot;: [\n    {\n      &quot;reference&quot;: &quot;urn:uuid:33d81ef9-823e-4201-867f-7838e5e76004&quot;\n    }\n  ],\n  &quot;status&quot;: &quot;final&quot;,\n  &quot;category&quot;: [\n    {\n      &quot;coding&quot;: [\n        {\n          &quot;system&quot;: &quot;http://terminology.hl7.org/CodeSystem/v2-0074&quot;,\n          &quot;code&quot;: &quot;GE&quot;,\n          &quot;display&quot;: &quot;Genetics&quot;\n        },\n        {\n          &quot;system&quot;: &quot;http://terminology.hl7.org/CodeSystem/v2-0074&quot;,\n          &quot;code&quot;: &quot;LAB&quot;,\n          &quot;display&quot;: &quot;Laboratory&quot;\n        }\n      ]\n    }\n  ],\n  &quot;code&quot;: {\n    &quot;coding&quot;: [\n      {\n        &quot;system&quot;: &quot;http://loinc.org&quot;,\n        &quot;code&quot;: &quot;81247-9&quot;,\n        &quot;display&quot;: &quot;Master HL7 genetic variant reporting panel&quot;\n      }\n    ]\n  },\n  &quot;subject&quot;: {\n    &quot;reference&quot;: &quot;urn:uuid:9ba16fd4-ac43-4764-89cc-f4e21f5cc2ef&quot;\n  },\n  &quot;performer&quot;: [\n    {\n      &quot;reference&quot;: &quot;urn:uuid:918ac52b-7fb1-482e-883e-74cebf6ad766&quot;\n    }\n  ],\n  &quot;resultsInterpreter&quot;: [\n    {\n      &quot;reference&quot;: &quot;urn:uuid:508c18ac-1e6d-4b46-bec7-1538c00a435b&quot;\n    },\n    {\n      &quot;reference&quot;: &quot;urn:uuid:b11592f4-b3b4-49c7-bddb-023f457fb03d&quot;\n    }\n  ],\n  &quot;specimen&quot;: [\n    {\n      &quot;reference&quot;: &quot;urn:uuid:b3170068-c175-4e9b-96e2-3beae1553ebe&quot;\n    }\n  ],\n  &quot;result&quot;: [\n    {\n      &quot;reference&quot;: &quot;urn:uuid:3196b69a-340b-4bfd-8960-3beda825b676&quot;\n    },\n    {\n      &quot;reference&quot;: &quot;urn:uuid:dfba6dd8-82c7-48a8-81e0-55c6c39890b4&quot;\n    },\n    {\n      &quot;reference&quot;: &quot;urn:uuid:e5c23d09-7b67-4d62-8701-fe898e273169&quot;\n    },\n    {\n      &quot;reference&quot;: &quot;urn:uuid:dd094f6c-369b-422d-a150-95cbde848e80&quot;\n    }\n  ]\n}</div>"
        },
        "extension": [
          {
            "url": "http://namingsystem.org/fhir/StructureDefinition/test-disclaimer",
            "valueString": "This test was developed and its performance determined by this laboratory. It has not been cleared or approved by U.S. Food and Drug Administration. Since FDA is not required for clinical use of this test, this laboratory has established and validated the test's accuracy and precision, pursuant to the requirement of CLIA '88. This laboratory is licensed and/or accredited under CLIA and CAP (CAP# 8000000 / CLIA# 4500000250)."
          },
          {
            "url": "http://hl7.org/fhir/uv/genomics-reporting/StructureDefinition/recommendedAction",
            "valueReference": {
              "reference": "urn:uuid:0994755a-2c0c-4952-8e70-95be17504644"
            }
          }
        ],
        "identifier": [
          {
            "type": {
              "coding": [
                {
                  "system": "http://terminology.hl7.org/CodeSystem/v2-0203",
                  "code": "FILL",
                  "display": "Filler Identifier"
                }
              ]
            },
            "system": "http://namingsystem.org/",
            "value": "1587100000.54"
          }
        ],
        "basedOn": [
          {
            "reference": "urn:uuid:33d81ef9-823e-4201-867f-7838e5e76004"
          }
        ],
        "status": "final",
        "category": [
          {
            "coding": [
              {
                "system": "http://terminology.hl7.org/CodeSystem/v2-0074",
                "code": "GE",
                "display": "Genetics"
              },
              {
                "system": "http://terminology.hl7.org/CodeSystem/v2-0074",
                "code": "LAB",
                "display": "Laboratory"
              }
            ]
          }
        ],
        "code": {
          "coding": [
            {
              "system": "http://loinc.org",
              "code": "81247-9",
              "display": "Master HL7 genetic variant reporting panel"
            }
          ]
        },
        "subject": {
          "reference": "urn:uuid:9ba16fd4-ac43-4764-89cc-f4e21f5cc2ef"
        },
        "performer": [
          {
            "reference": "urn:uuid:918ac52b-7fb1-482e-883e-74cebf6ad766"
          }
        ],
        "resultsInterpreter": [
          {
            "reference": "urn:uuid:508c18ac-1e6d-4b46-bec7-1538c00a435b"
          },
          {
            "reference": "urn:uuid:b11592f4-b3b4-49c7-bddb-023f457fb03d"
          }
        ],
        "specimen": [
          {
            "reference": "urn:uuid:b3170068-c175-4e9b-96e2-3beae1553ebe"
          }
        ],
        "result": [
          {
            "reference": "urn:uuid:3196b69a-340b-4bfd-8960-3beda825b676"
          },
          {
            "reference": "urn:uuid:dfba6dd8-82c7-48a8-81e0-55c6c39890b4"
          },
          {
            "reference": "urn:uuid:e5c23d09-7b67-4d62-8701-fe898e273169"
          },
          {
            "reference": "urn:uuid:dd094f6c-369b-422d-a150-95cbde848e80"
          }
        ]
      },
      "request": {
        "method": "POST",
        "url": "DiagnosticReport"
      }
    }
  ]
}
