{
  "resourceType": "Bundle",
  "type": "transaction",
  "entry": [
    {
      "fullUrl": "urn:uuid:53875482-ee58-41c5-97bf-4af5c1b5bbcd",
      "resource": {
        "resourceType": "Patient",
        "language": "en-US",
        "text": {
          "status": "generated",
          "div": "<div xmlns=\"http://www.w3.org/1999/xhtml\">{\n  &quot;resourceType&quot;: &quot;Patient&quot;,\n  &quot;language&quot;: &quot;en-US&quot;,\n  &quot;extension&quot;: [\n    {\n      &quot;url&quot;: &quot;http://hl7.org/fhir/us/core/StructureDefinition/us-core-birthsex&quot;,\n      &quot;valueCode&quot;: &quot;F&quot;\n    },\n    {\n      &quot;url&quot;: &quot;http://hl7.org/fhir/us/core/StructureDefinition/us-core-ethnicity&quot;,\n      &quot;extension&quot;: [\n        {\n          &quot;url&quot;: &quot;text&quot;,\n          &quot;valueString&quot;: &quot;Not Hispanic or Latino&quot;\n        }\n      ]\n    },\n    {\n      &quot;url&quot;: &quot;http://hl7.org/fhir/us/core/StructureDefinition/us-core-race&quot;,\n      &quot;extension&quot;: [\n        {\n          &quot;url&quot;: &quot;ombCategory&quot;,\n          &quot;valueCoding&quot;: {\n            &quot;system&quot;: &quot;urn:oid:2.16.840.1.113883.6.238&quot;,\n            &quot;code&quot;: &quot;2054-5&quot;,\n            &quot;display&quot;: &quot;Black or African American&quot;\n          }\n        },\n        {\n          &quot;url&quot;: &quot;text&quot;,\n          &quot;valueString&quot;: &quot;Black or African American&quot;\n        }\n      ]\n    }\n  ],\n  &quot;identifier&quot;: [\n    {\n      &quot;type&quot;: {\n        &quot;coding&quot;: [\n          {\n            &quot;system&quot;: &quot;http://terminology.hl7.org/CodeSystem/v2-0203&quot;,\n            &quot;code&quot;: &quot;PI&quot;,\n            &quot;display&quot;: &quot;Patient internal identifier&quot;\n          }\n        ]\n      },\n      &quot;system&quot;: &quot;http://namingsystem.org/&quot;,\n      &quot;value&quot;: &quot;dd038a76-75a7-1234-bd73-89f222021b0e&quot;\n    }\n  ]\n}</div>"
        },
        "extension": [
          {
            "url": "http://hl7.org/fhir/us/core/StructureDefinition/us-core-birthsex",
            "valueCode": "F"
          },
          {
            "url": "http://hl7.org/fhir/us/core/StructureDefinition/us-core-ethnicity",
            "extension": [
              {
                "url": "text",
                "valueString": "Not Hispanic or Latino"
              }
            ]
          },
          {
            "url": "http://hl7.org/fhir/us/core/StructureDefinition/us-core-race",
            "extension": [
              {
                "url": "ombCategory",
                "valueCoding": {
                  "system": "urn:oid:2.16.840.1.113883.6.238",
                  "code": "2054-5",
                  "display": "Black or African American"
                }
              },
              {
                "url": "text",
                "valueString": "Black or African American"
              }
            ]
          }
        ],
        "identifier": [
          {
            "type": {
              "coding": [
                {
                  "system": "http://terminology.hl7.org/CodeSystem/v2-0203",
                  "code": "PI",
                  "display": "Patient internal identifier"
                }
              ]
            },
            "system": "http://namingsystem.org/",
            "value": "dd038a76-75a7-1234-bd73-89f222021b0e"
          }
        ]
      },
      "request": {
        "method": "POST",
        "url": "Patient"
      }
    },
    {
      "fullUrl": "urn:uuid:b2adc29b-175d-4037-85b7-0159d955d9da",
      "resource": {
        "resourceType": "Specimen",
        "meta": {
          "profile": [
            "http://hl7.org/fhir/uv/genomics-reporting/StructureDefinition/specimen"
          ]
        },
        "language": "en-US",
        "text": {
          "status": "generated",
          "div": "<div xmlns=\"http://www.w3.org/1999/xhtml\">{\n  &quot;resourceType&quot;: &quot;Specimen&quot;,\n  &quot;meta&quot;: {\n    &quot;profile&quot;: [\n      &quot;http://hl7.org/fhir/uv/genomics-reporting/StructureDefinition/specimen&quot;\n    ]\n  },\n  &quot;language&quot;: &quot;en-US&quot;,\n  &quot;identifier&quot;: [\n    {\n      &quot;system&quot;: &quot;http://namingsystem.org/&quot;,\n      &quot;value&quot;: &quot;dd038a76-75a7-1234-bd73-89f222021b0e--specimen&quot;\n    }\n  ],\n  &quot;type&quot;: {\n    &quot;coding&quot;: [\n      {\n        &quot;system&quot;: &quot;http://snomed.info/sct&quot;,\n        &quot;code&quot;: &quot;258566005&quot;,\n        &quot;display&quot;: &quot;Deoxyribonucleic acid sample&quot;\n      }\n    ]\n  },\n  &quot;subject&quot;: {\n    &quot;reference&quot;: &quot;urn:uuid:53875482-ee58-41c5-97bf-4af5c1b5bbcd&quot;\n  },\n  &quot;request&quot;: [\n    {\n      &quot;reference&quot;: &quot;urn:uuid:909636eb-0510-44b6-9bc6-e9f730726f7e&quot;\n    }\n  ]\n}</div>"
        },
        "identifier": [
          {
            "system": "http://namingsystem.org/",
            "value": "dd038a76-75a7-1234-bd73-89f222021b0e--specimen"
          }
        ],
        "type": {
          "coding": [
            {
              "system": "http://snomed.info/sct",
              "code": "258566005",
              "display": "Deoxyribonucleic acid sample"
            }
          ]
        },
        "subject": {
          "reference": "urn:uuid:53875482-ee58-41c5-97bf-4af5c1b5bbcd"
        },
        "request": [
          {
            "reference": "urn:uuid:909636eb-0510-44b6-9bc6-e9f730726f7e"
          }
        ]
      },
      "request": {
        "method": "POST",
        "url": "Specimen"
      }
    },
    {
      "fullUrl": "urn:uuid:909636eb-0510-44b6-9bc6-e9f730726f7e",
      "resource": {
        "resourceType": "ServiceRequest",
        "meta": {
          "profile": [
            "http://hl7.org/fhir/uv/genomics-reporting/StructureDefinition/servicerequest"
          ]
        },
        "language": "en-US",
        "text": {
          "status": "generated",
          "div": "<div xmlns=\"http://www.w3.org/1999/xhtml\">{\n  &quot;resourceType&quot;: &quot;ServiceRequest&quot;,\n  &quot;meta&quot;: {\n    &quot;profile&quot;: [\n      &quot;http://hl7.org/fhir/uv/genomics-reporting/StructureDefinition/servicerequest&quot;\n    ]\n  },\n  &quot;language&quot;: &quot;en-US&quot;,\n  &quot;identifier&quot;: [\n    {\n      &quot;system&quot;: &quot;http://namingsystem.org/&quot;,\n      &quot;value&quot;: &quot;dd038a76-75a7-1234-bd73-89f222021b0e--serviceRequest&quot;\n    }\n  ],\n  &quot;instantiatesCanonical&quot;: [\n    &quot;urn:uuid:576fc9bb-6c0a-461c-a868-e2f193c668d4&quot;\n  ],\n  &quot;status&quot;: &quot;completed&quot;,\n  &quot;intent&quot;: &quot;filler-order&quot;,\n  &quot;category&quot;: [\n    {\n      &quot;coding&quot;: [\n        {\n          &quot;system&quot;: &quot;http://snomed.info/sct&quot;,\n          &quot;code&quot;: &quot;108252007&quot;,\n          &quot;display&quot;: &quot;Laboratory procedure&quot;\n        }\n      ]\n    }\n  ],\n  &quot;code&quot;: {\n    &quot;coding&quot;: [\n      {\n        &quot;system&quot;: &quot;https://namingsystem.org/lab-test-codes/&quot;,\n        &quot;code&quot;: &quot;emerge-seq-ngs-pnl&quot;,\n        &quot;display&quot;: &quot;eMERGE-Seq NGS Panel&quot;\n      }\n    ],\n    &quot;text&quot;: &quot;eMERGE-Seq Panel Sequencing Report&quot;\n  },\n  &quot;subject&quot;: {\n    &quot;reference&quot;: &quot;urn:uuid:53875482-ee58-41c5-97bf-4af5c1b5bbcd&quot;\n  },\n  &quot;authoredOn&quot;: &quot;2020-04-17T00:00:00-05:00&quot;,\n  &quot;performerType&quot;: {\n    &quot;coding&quot;: [\n      {\n        &quot;system&quot;: &quot;http://snomed.info/sct&quot;,\n        &quot;code&quot;: &quot;310049001&quot;,\n        &quot;display&quot;: &quot;Clinical genetics service&quot;\n      }\n    ]\n  },\n  &quot;performer&quot;: [\n    {\n      &quot;reference&quot;: &quot;urn:uuid:feb714c7-2910-4d38-91da-dfcdb10271d8&quot;\n    }\n  ],\n  &quot;reasonCode&quot;: [\n    {\n      &quot;coding&quot;: [\n        {\n          &quot;system&quot;: &quot;http://namingsystem.org&quot;,\n          &quot;code&quot;: &quot;10093-7&quot;,\n          &quot;display&quot;: &quot;Not selected for trait&quot;\n        }\n      ]\n    }\n  ],\n  &quot;specimen&quot;: [\n    {\n      &quot;reference&quot;: &quot;urn:uuid:b2adc29b-175d-4037-85b7-0159d955d9da&quot;\n    }\n  ]\n}</div>"
        },
        "identifier": [
          {
            "system": "http://namingsystem.org/",
            "value": "dd038a76-75a7-1234-bd73-89f222021b0e--serviceRequest"
          }
        ],
        "instantiatesCanonical": [
          "urn:uuid:576fc9bb-6c0a-461c-a868-e2f193c668d4"
        ],
        "status": "completed",
        "intent": "filler-order",
        "category": [
          {
            "coding": [
              {
                "system": "http://snomed.info/sct",
                "code": "108252007",
                "display": "Laboratory procedure"
              }
            ]
          }
        ],
        "code": {
          "coding": [
            {
              "system": "https://namingsystem.org/lab-test-codes/",
              "code": "emerge-seq-ngs-pnl",
              "display": "eMERGE-Seq NGS Panel"
            }
          ],
          "text": "eMERGE-Seq Panel Sequencing Report"
        },
        "subject": {
          "reference": "urn:uuid:53875482-ee58-41c5-97bf-4af5c1b5bbcd"
        },
        "authoredOn": "2020-04-17T00:00:00-05:00",
        "performerType": {
          "coding": [
            {
              "system": "http://snomed.info/sct",
              "code": "310049001",
              "display": "Clinical genetics service"
            }
          ]
        },
        "performer": [
          {
            "reference": "urn:uuid:feb714c7-2910-4d38-91da-dfcdb10271d8"
          }
        ],
        "reasonCode": [
          {
            "coding": [
              {
                "system": "http://namingsystem.org",
                "code": "10093-7",
                "display": "Not selected for trait"
              }
            ]
          }
        ],
        "specimen": [
          {
            "reference": "urn:uuid:b2adc29b-175d-4037-85b7-0159d955d9da"
          }
        ]
      },
      "request": {
        "method": "POST",
        "url": "ServiceRequest"
      }
    },
    {
      "fullUrl": "urn:uuid:c9331b20-a9a7-4cab-9bb8-4309f70dc2d9",
      "resource": {
        "resourceType": "Observation",
        "meta": {
          "profile": [
            "http://hl7.org/fhir/uv/genomics-reporting/StructureDefinition/overall-interpretation"
          ]
        },
        "language": "en-US",
        "text": {
          "status": "generated",
          "div": "<div xmlns=\"http://www.w3.org/1999/xhtml\">{\n  &quot;resourceType&quot;: &quot;Observation&quot;,\n  &quot;meta&quot;: {\n    &quot;profile&quot;: [\n      &quot;http://hl7.org/fhir/uv/genomics-reporting/StructureDefinition/overall-interpretation&quot;\n    ]\n  },\n  &quot;language&quot;: &quot;en-US&quot;,\n  &quot;identifier&quot;: [\n    {\n      &quot;system&quot;: &quot;http://namingsystem.org/&quot;,\n      &quot;value&quot;: &quot;1587000005.75--overallInterpretation&quot;\n    }\n  ],\n  &quot;basedOn&quot;: [\n    {\n      &quot;reference&quot;: &quot;urn:uuid:909636eb-0510-44b6-9bc6-e9f730726f7e&quot;\n    }\n  ],\n  &quot;status&quot;: &quot;final&quot;,\n  &quot;category&quot;: [\n    {\n      &quot;coding&quot;: [\n        {\n          &quot;system&quot;: &quot;http://terminology.hl7.org/CodeSystem/observation-category&quot;,\n          &quot;code&quot;: &quot;laboratory&quot;,\n          &quot;display&quot;: &quot;Laboratory&quot;\n        }\n      ]\n    }\n  ],\n  &quot;code&quot;: {\n    &quot;coding&quot;: [\n      {\n        &quot;system&quot;: &quot;http://loinc.org&quot;,\n        &quot;code&quot;: &quot;51968-6&quot;,\n        &quot;display&quot;: &quot;Genetic disease analysis overall interpretation&quot;\n      }\n    ]\n  },\n  &quot;subject&quot;: {\n    &quot;reference&quot;: &quot;urn:uuid:53875482-ee58-41c5-97bf-4af5c1b5bbcd&quot;\n  },\n  &quot;performer&quot;: [\n    {\n      &quot;reference&quot;: &quot;urn:uuid:feb714c7-2910-4d38-91da-dfcdb10271d8&quot;\n    }\n  ],\n  &quot;valueCodeableConcept&quot;: {\n    &quot;coding&quot;: [\n      {\n        &quot;system&quot;: &quot;http://loinc.org&quot;,\n        &quot;code&quot;: &quot;LA6576-8&quot;,\n        &quot;display&quot;: &quot;Positive&quot;\n      }\n    ]\n  },\n  &quot;specimen&quot;: {\n    &quot;reference&quot;: &quot;urn:uuid:b2adc29b-175d-4037-85b7-0159d955d9da&quot;\n  },\n  &quot;derivedFrom&quot;: [\n    {\n      &quot;reference&quot;: &quot;urn:uuid:4ebdde8a-3580-494c-ab74-96ac8905488d&quot;\n    }\n  ]\n}</div>"
        },
        "identifier": [
          {
            "system": "http://namingsystem.org/",
            "value": "1587000005.75--overallInterpretation"
          }
        ],
        "basedOn": [
          {
            "reference": "urn:uuid:909636eb-0510-44b6-9bc6-e9f730726f7e"
          }
        ],
        "status": "final",
        "category": [
          {
            "coding": [
              {
                "system": "http://terminology.hl7.org/CodeSystem/observation-category",
                "code": "laboratory",
                "display": "Laboratory"
              }
            ]
          }
        ],
        "code": {
          "coding": [
            {
              "system": "http://loinc.org",
              "code": "51968-6",
              "display": "Genetic disease analysis overall interpretation"
            }
          ]
        },
        "subject": {
          "reference": "urn:uuid:53875482-ee58-41c5-97bf-4af5c1b5bbcd"
        },
        "performer": [
          {
            "reference": "urn:uuid:feb714c7-2910-4d38-91da-dfcdb10271d8"
          }
        ],
        "valueCodeableConcept": {
          "coding": [
            {
              "system": "http://loinc.org",
              "code": "LA6576-8",
              "display": "Positive"
            }
          ]
        },
        "specimen": {
          "reference": "urn:uuid:b2adc29b-175d-4037-85b7-0159d955d9da"
        },
        "derivedFrom": [
          {
            "reference": "urn:uuid:4ebdde8a-3580-494c-ab74-96ac8905488d"
          }
        ]
      },
      "request": {
        "method": "POST",
        "url": "Observation"
      }
    },
    {
      "fullUrl": "urn:uuid:0ef3b6e1-5c56-4b89-8d10-1e911e11053f",
      "resource": {
        "resourceType": "Observation",
        "meta": {
          "profile": [
            "http://hl7.org/fhir/uv/genomics-reporting/StructureDefinition/variant"
          ]
        },
        "language": "en-US",
        "text": {
          "status": "generated",
          "div": "<div xmlns=\"http://www.w3.org/1999/xhtml\">{\n  &quot;resourceType&quot;: &quot;Observation&quot;,\n  &quot;meta&quot;: {\n    &quot;profile&quot;: [\n      &quot;http://hl7.org/fhir/uv/genomics-reporting/StructureDefinition/variant&quot;\n    ]\n  },\n  &quot;language&quot;: &quot;en-US&quot;,\n  &quot;identifier&quot;: [\n    {\n      &quot;system&quot;: &quot;http://namingsystem.org/&quot;,\n      &quot;value&quot;: &quot;1587000005.75--variant--3291129713TAAACT&quot;\n    }\n  ],\n  &quot;basedOn&quot;: [\n    {\n      &quot;reference&quot;: &quot;urn:uuid:909636eb-0510-44b6-9bc6-e9f730726f7e&quot;\n    }\n  ],\n  &quot;status&quot;: &quot;final&quot;,\n  &quot;category&quot;: [\n    {\n      &quot;coding&quot;: [\n        {\n          &quot;system&quot;: &quot;http://terminology.hl7.org/CodeSystem/observation-category&quot;,\n          &quot;code&quot;: &quot;laboratory&quot;,\n          &quot;display&quot;: &quot;Laboratory&quot;\n        }\n      ]\n    }\n  ],\n  &quot;code&quot;: {\n    &quot;coding&quot;: [\n      {\n        &quot;system&quot;: &quot;http://loinc.org&quot;,\n        &quot;code&quot;: &quot;69548-6&quot;,\n        &quot;display&quot;: &quot;Genetic variant assessment&quot;\n      }\n    ]\n  },\n  &quot;subject&quot;: {\n    &quot;reference&quot;: &quot;urn:uuid:53875482-ee58-41c5-97bf-4af5c1b5bbcd&quot;\n  },\n  &quot;performer&quot;: [\n    {\n      &quot;reference&quot;: &quot;urn:uuid:feb714c7-2910-4d38-91da-dfcdb10271d8&quot;\n    }\n  ],\n  &quot;valueCodeableConcept&quot;: {\n    &quot;coding&quot;: [\n      {\n        &quot;system&quot;: &quot;http://loinc.org&quot;,\n        &quot;code&quot;: &quot;LA9633-4&quot;,\n        &quot;display&quot;: &quot;Present&quot;\n      }\n    ]\n  },\n  &quot;note&quot;: [\n    {\n      &quot;authorReference&quot;: {\n        &quot;reference&quot;: &quot;urn:uuid:feb714c7-2910-4d38-91da-dfcdb10271d8&quot;\n      },\n      &quot;text&quot;: &quot;PMID 8524414, 22144684, 21952622, 22006311, 21324516; rs80359351; Confirmed by Sanger sequencing&quot;\n    }\n  ],\n  &quot;specimen&quot;: {\n    &quot;reference&quot;: &quot;urn:uuid:b2adc29b-175d-4037-85b7-0159d955d9da&quot;\n  },\n  &quot;component&quot;: [\n    {\n      &quot;code&quot;: {\n        &quot;coding&quot;: [\n          {\n            &quot;system&quot;: &quot;http://loinc.org&quot;,\n            &quot;code&quot;: &quot;62374-4&quot;,\n            &quot;display&quot;: &quot;Human reference sequence assembly version&quot;\n          }\n        ]\n      },\n      &quot;valueCodeableConcept&quot;: {\n        &quot;coding&quot;: [\n          {\n            &quot;system&quot;: &quot;http://loinc.org&quot;,\n            &quot;code&quot;: &quot;LA14029-5&quot;,\n            &quot;display&quot;: &quot;GRCh37&quot;\n          }\n        ]\n      }\n    },\n    {\n      &quot;code&quot;: {\n        &quot;coding&quot;: [\n          {\n            &quot;system&quot;: &quot;http://loinc.org&quot;,\n            &quot;code&quot;: &quot;92822-6&quot;,\n            &quot;display&quot;: &quot;Genomic coordinate system [Type]&quot;\n          }\n        ]\n      },\n      &quot;valueCodeableConcept&quot;: {\n        &quot;coding&quot;: [\n          {\n            &quot;system&quot;: &quot;http://loinc.org&quot;,\n            &quot;code&quot;: &quot;LA30102-0&quot;,\n            &quot;display&quot;: &quot;1-based character counting&quot;\n          }\n        ]\n      }\n    },\n    {\n      &quot;code&quot;: {\n        &quot;coding&quot;: [\n          {\n            &quot;system&quot;: &quot;http://loinc.org&quot;,\n            &quot;code&quot;: &quot;48002-0&quot;,\n            &quot;display&quot;: &quot;Genomic source class [Type]&quot;\n          }\n        ]\n      },\n      &quot;valueCodeableConcept&quot;: {\n        &quot;coding&quot;: [\n          {\n            &quot;system&quot;: &quot;http://loinc.org&quot;,\n            &quot;code&quot;: &quot;LA6683-2&quot;,\n            &quot;display&quot;: &quot;Germline&quot;\n          }\n        ]\n      }\n    },\n    {\n      &quot;code&quot;: {\n        &quot;coding&quot;: [\n          {\n            &quot;system&quot;: &quot;http://loinc.org&quot;,\n            &quot;code&quot;: &quot;48000-4&quot;,\n            &quot;display&quot;: &quot;Chromosome, Blood or Tissue Specimen&quot;\n          }\n        ]\n      },\n      &quot;valueCodeableConcept&quot;: {\n        &quot;coding&quot;: [\n          {\n            &quot;system&quot;: &quot;http://loinc.org&quot;,\n            &quot;code&quot;: &quot;LA21266-4&quot;,\n            &quot;display&quot;: &quot;Chromosome 13&quot;\n          }\n        ]\n      }\n    },\n    {\n      &quot;code&quot;: {\n        &quot;coding&quot;: [\n          {\n            &quot;system&quot;: &quot;http://loinc.org&quot;,\n            &quot;code&quot;: &quot;69547-8&quot;,\n            &quot;display&quot;: &quot;Genomic ref allele [ID]&quot;\n          }\n        ]\n      },\n      &quot;valueString&quot;: &quot;TAAAC&quot;\n    },\n    {\n      &quot;code&quot;: {\n        &quot;coding&quot;: [\n          {\n            &quot;system&quot;: &quot;http://loinc.org&quot;,\n            &quot;code&quot;: &quot;69551-0&quot;,\n            &quot;display&quot;: &quot;Genomic alt allele [ID]&quot;\n          }\n        ]\n      },\n      &quot;valueString&quot;: &quot;T&quot;\n    },\n    {\n      &quot;code&quot;: {\n        &quot;coding&quot;: [\n          {\n            &quot;system&quot;: &quot;http://loinc.org&quot;,\n            &quot;code&quot;: &quot;81254-5&quot;,\n            &quot;display&quot;: &quot;Genomic allele start-end&quot;\n          }\n        ]\n      },\n      &quot;valueRange&quot;: {\n        &quot;low&quot;: {\n          &quot;value&quot;: 32911297\n        }\n      }\n    },\n    {\n      &quot;code&quot;: {\n        &quot;coding&quot;: [\n          {\n            &quot;system&quot;: &quot;http://loinc.org&quot;,\n            &quot;code&quot;: &quot;53034-5&quot;,\n            &quot;display&quot;: &quot;Allelic state&quot;\n          }\n        ]\n      },\n      &quot;valueCodeableConcept&quot;: {\n        &quot;coding&quot;: [\n          {\n            &quot;system&quot;: &quot;http://loinc.org&quot;,\n            &quot;code&quot;: &quot;LA6706-1&quot;,\n            &quot;display&quot;: &quot;Heterozygous&quot;\n          }\n        ]\n      }\n    },\n    {\n      &quot;code&quot;: {\n        &quot;coding&quot;: [\n          {\n            &quot;system&quot;: &quot;http://loinc.org&quot;,\n            &quot;code&quot;: &quot;48018-6&quot;,\n            &quot;display&quot;: &quot;Gene studied [ID]&quot;\n          }\n        ]\n      },\n      &quot;valueCodeableConcept&quot;: {\n        &quot;coding&quot;: [\n          {\n            &quot;system&quot;: &quot;http://www.genenames.org/geneId&quot;,\n            &quot;code&quot;: &quot;HGNC:7127&quot;,\n            &quot;display&quot;: &quot;BRCA2&quot;\n          }\n        ]\n      }\n    },\n    {\n      &quot;code&quot;: {\n        &quot;coding&quot;: [\n          {\n            &quot;system&quot;: &quot;http://loinc.org&quot;,\n            &quot;code&quot;: &quot;81290-9&quot;,\n            &quot;display&quot;: &quot;Genomic DNA change (gHGVS)&quot;\n          }\n        ]\n      },\n      &quot;valueCodeableConcept&quot;: {\n        &quot;coding&quot;: [\n          {\n            &quot;system&quot;: &quot;http://varnomen.hgvs.org/&quot;,\n            &quot;code&quot;: &quot;g.32911300_32911303delACAA&quot;,\n            &quot;display&quot;: &quot;g.32911300_32911303delACAA&quot;\n          }\n        ]\n      }\n    },\n    {\n      &quot;code&quot;: {\n        &quot;coding&quot;: [\n          {\n            &quot;system&quot;: &quot;http://loinc.org&quot;,\n            &quot;code&quot;: &quot;51958-7&quot;,\n            &quot;display&quot;: &quot;Transcript reference sequence [ID]&quot;\n          }\n        ]\n      },\n      &quot;valueCodeableConcept&quot;: {\n        &quot;coding&quot;: [\n          {\n            &quot;system&quot;: &quot;https://www.ncbi.nlm.nih.gov/nuccore&quot;,\n            &quot;code&quot;: &quot;NM_000059.3&quot;,\n            &quot;display&quot;: &quot;NM_000059.3&quot;\n          }\n        ]\n      }\n    },\n    {\n      &quot;code&quot;: {\n        &quot;coding&quot;: [\n          {\n            &quot;system&quot;: &quot;http://loinc.org&quot;,\n            &quot;code&quot;: &quot;48004-6&quot;,\n            &quot;display&quot;: &quot;DNA change (c.HGVS)&quot;\n          }\n        ]\n      },\n      &quot;valueCodeableConcept&quot;: {\n        &quot;coding&quot;: [\n          {\n            &quot;system&quot;: &quot;http://varnomen.hgvs.org&quot;,\n            &quot;code&quot;: &quot;c.2808_2811delACAA&quot;,\n            &quot;display&quot;: &quot;c.2808_2811delACAA&quot;\n          }\n        ]\n      }\n    },\n    {\n      &quot;code&quot;: {\n        &quot;coding&quot;: [\n          {\n            &quot;system&quot;: &quot;http://loinc.org&quot;,\n            &quot;code&quot;: &quot;79742-3&quot;,\n            &quot;display&quot;: &quot;Inheritance pattern based on family history&quot;\n          }\n        ]\n      },\n      &quot;valueCodeableConcept&quot;: {\n        &quot;coding&quot;: [\n          {\n            &quot;system&quot;: &quot;http://loinc.org&quot;,\n            &quot;code&quot;: &quot;LA24640-7&quot;,\n            &quot;display&quot;: &quot;Autosomal dominant&quot;\n          }\n        ]\n      }\n    },\n    {\n      &quot;code&quot;: {\n        &quot;coding&quot;: [\n          {\n            &quot;system&quot;: &quot;http://loinc.org&quot;,\n            &quot;code&quot;: &quot;48005-3&quot;,\n            &quot;display&quot;: &quot;Amino acid change (pHGVS)&quot;\n          }\n        ]\n      },\n      &quot;valueCodeableConcept&quot;: {\n        &quot;coding&quot;: [\n          {\n            &quot;system&quot;: &quot;http://varnomen.hgvs.org/&quot;,\n            &quot;code&quot;: &quot;p.Ala938Profs*21&quot;,\n            &quot;display&quot;: &quot;p.Ala938Profs*21&quot;\n          }\n        ]\n      }\n    }\n  ]\n}</div>"
        },
        "identifier": [
          {
            "system": "http://namingsystem.org/",
            "value": "1587000005.75--variant--3291129713TAAACT"
          }
        ],
        "basedOn": [
          {
            "reference": "urn:uuid:909636eb-0510-44b6-9bc6-e9f730726f7e"
          }
        ],
        "status": "final",
        "category": [
          {
            "coding": [
              {
                "system": "http://terminology.hl7.org/CodeSystem/observation-category",
                "code": "laboratory",
                "display": "Laboratory"
              }
            ]
          }
        ],
        "code": {
          "coding": [
            {
              "system": "http://loinc.org",
              "code": "69548-6",
              "display": "Genetic variant assessment"
            }
          ]
        },
        "subject": {
          "reference": "urn:uuid:53875482-ee58-41c5-97bf-4af5c1b5bbcd"
        },
        "performer": [
          {
            "reference": "urn:uuid:feb714c7-2910-4d38-91da-dfcdb10271d8"
          }
        ],
        "valueCodeableConcept": {
          "coding": [
            {
              "system": "http://loinc.org",
              "code": "LA9633-4",
              "display": "Present"
            }
          ]
        },
        "note": [
          {
            "authorReference": {
              "reference": "urn:uuid:feb714c7-2910-4d38-91da-dfcdb10271d8"
            },
            "text": "PMID 8524414, 22144684, 21952622, 22006311, 21324516; rs80359351; Confirmed by Sanger sequencing"
          }
        ],
        "specimen": {
          "reference": "urn:uuid:b2adc29b-175d-4037-85b7-0159d955d9da"
        },
        "component": [
          {
            "code": {
              "coding": [
                {
                  "system": "http://loinc.org",
                  "code": "62374-4",
                  "display": "Human reference sequence assembly version"
                }
              ]
            },
            "valueCodeableConcept": {
              "coding": [
                {
                  "system": "http://loinc.org",
                  "code": "LA14029-5",
                  "display": "GRCh37"
                }
              ]
            }
          },
          {
            "code": {
              "coding": [
                {
                  "system": "http://loinc.org",
                  "code": "92822-6",
                  "display": "Genomic coordinate system [Type]"
                }
              ]
            },
            "valueCodeableConcept": {
              "coding": [
                {
                  "system": "http://loinc.org",
                  "code": "LA30102-0",
                  "display": "1-based character counting"
                }
              ]
            }
          },
          {
            "code": {
              "coding": [
                {
                  "system": "http://loinc.org",
                  "code": "48002-0",
                  "display": "Genomic source class [Type]"
                }
              ]
            },
            "valueCodeableConcept": {
              "coding": [
                {
                  "system": "http://loinc.org",
                  "code": "LA6683-2",
                  "display": "Germline"
                }
              ]
            }
          },
          {
            "code": {
              "coding": [
                {
                  "system": "http://loinc.org",
                  "code": "48000-4",
                  "display": "Chromosome, Blood or Tissue Specimen"
                }
              ]
            },
            "valueCodeableConcept": {
              "coding": [
                {
                  "system": "http://loinc.org",
                  "code": "LA21266-4",
                  "display": "Chromosome 13"
                }
              ]
            }
          },
          {
            "code": {
              "coding": [
                {
                  "system": "http://loinc.org",
                  "code": "69547-8",
                  "display": "Genomic ref allele [ID]"
                }
              ]
            },
            "valueString": "TAAAC"
          },
          {
            "code": {
              "coding": [
                {
                  "system": "http://loinc.org",
                  "code": "69551-0",
                  "display": "Genomic alt allele [ID]"
                }
              ]
            },
            "valueString": "T"
          },
          {
            "code": {
              "coding": [
                {
                  "system": "http://loinc.org",
                  "code": "81254-5",
                  "display": "Genomic allele start-end"
                }
              ]
            },
            "valueRange": {
              "low": {
                "value": 32911297
              }
            }
          },
          {
            "code": {
              "coding": [
                {
                  "system": "http://loinc.org",
                  "code": "53034-5",
                  "display": "Allelic state"
                }
              ]
            },
            "valueCodeableConcept": {
              "coding": [
                {
                  "system": "http://loinc.org",
                  "code": "LA6706-1",
                  "display": "Heterozygous"
                }
              ]
            }
          },
          {
            "code": {
              "coding": [
                {
                  "system": "http://loinc.org",
                  "code": "48018-6",
                  "display": "Gene studied [ID]"
                }
              ]
            },
            "valueCodeableConcept": {
              "coding": [
                {
                  "system": "http://www.genenames.org/geneId",
                  "code": "HGNC:7127",
                  "display": "BRCA2"
                }
              ]
            }
          },
          {
            "code": {
              "coding": [
                {
                  "system": "http://loinc.org",
                  "code": "81290-9",
                  "display": "Genomic DNA change (gHGVS)"
                }
              ]
            },
            "valueCodeableConcept": {
              "coding": [
                {
                  "system": "http://varnomen.hgvs.org/",
                  "code": "g.32911300_32911303delACAA",
                  "display": "g.32911300_32911303delACAA"
                }
              ]
            }
          },
          {
            "code": {
              "coding": [
                {
                  "system": "http://loinc.org",
                  "code": "51958-7",
                  "display": "Transcript reference sequence [ID]"
                }
              ]
            },
            "valueCodeableConcept": {
              "coding": [
                {
                  "system": "https://www.ncbi.nlm.nih.gov/nuccore",
                  "code": "NM_000059.3",
                  "display": "NM_000059.3"
                }
              ]
            }
          },
          {
            "code": {
              "coding": [
                {
                  "system": "http://loinc.org",
                  "code": "48004-6",
                  "display": "DNA change (c.HGVS)"
                }
              ]
            },
            "valueCodeableConcept": {
              "coding": [
                {
                  "system": "http://varnomen.hgvs.org",
                  "code": "c.2808_2811delACAA",
                  "display": "c.2808_2811delACAA"
                }
              ]
            }
          },
          {
            "code": {
              "coding": [
                {
                  "system": "http://loinc.org",
                  "code": "79742-3",
                  "display": "Inheritance pattern based on family history"
                }
              ]
            },
            "valueCodeableConcept": {
              "coding": [
                {
                  "system": "http://loinc.org",
                  "code": "LA24640-7",
                  "display": "Autosomal dominant"
                }
              ]
            }
          },
          {
            "code": {
              "coding": [
                {
                  "system": "http://loinc.org",
                  "code": "48005-3",
                  "display": "Amino acid change (pHGVS)"
                }
              ]
            },
            "valueCodeableConcept": {
              "coding": [
                {
                  "system": "http://varnomen.hgvs.org/",
                  "code": "p.Ala938Profs*21",
                  "display": "p.Ala938Profs*21"
                }
              ]
            }
          }
        ]
      },
      "request": {
        "method": "POST",
        "url": "Observation"
      }
    },
    {
      "fullUrl": "urn:uuid:4ebdde8a-3580-494c-ab74-96ac8905488d",
      "resource": {
        "resourceType": "Observation",
        "meta": {
          "profile": [
            "http://hl7.org/fhir/uv/genomics-reporting/StructureDefinition/inherited-disease-pathogenicity"
          ]
        },
        "language": "en-US",
        "text": {
          "status": "generated",
          "div": "<div xmlns=\"http://www.w3.org/1999/xhtml\">{\n  &quot;resourceType&quot;: &quot;Observation&quot;,\n  &quot;meta&quot;: {\n    &quot;profile&quot;: [\n      &quot;http://hl7.org/fhir/uv/genomics-reporting/StructureDefinition/inherited-disease-pathogenicity&quot;\n    ]\n  },\n  &quot;language&quot;: &quot;en-US&quot;,\n  &quot;extension&quot;: [\n    {\n      &quot;url&quot;: &quot;http://hl7.org/fhir/StructureDefinition/observation-secondaryFinding&quot;,\n      &quot;valueCodeableConcept&quot;: {\n        &quot;text&quot;: &quot;See methodology for details.&quot;\n      }\n    },\n    {\n      &quot;url&quot;: &quot;http://namingsystem.org/fhir/StructureDefinition/interpretation-summary-text&quot;,\n      &quot;valueString&quot;: &quot;A heterozygous c.2808_2811delACAA (p.Ala938Profs*21) pathogenic variant in the BRCA2 (NM_000059.3) gene was detected in this individual, which was confirmed by Sanger sequencing. Defects in BRCA2 are the cause of familial breast-ovarian cancer 2 (BROVCA2) [MIM 612555],  Characteristic features in affected families are an early age of onset of breast cancer (often before age 50), increased chance of bilateral cancers (cancer that develop in both breasts, or both ovaries, independently), frequent occurrence of breast cancer among men, increased incidence of tumors of other specific organs, such as the prostate. Reported cancer risks vary based on the study and the type of variants reported in patients. The estimated lifetime risk for breast cancer ranges from 34% to 84% in females and up to 9% in males; with an ovarian cancer risk of between 16 and 27% by age 70. Increased risks in prostate (20%) and pancreatic (2-7%) cancer have also been reported [Genereviews NBK1247]. Defects in BRCA2 are also the defect of Fanconi anemia, complementation group D1 [MIM 605724], an autosomal recessive disorder affecting all bone marrow elements and resulting in anemia, leukopenia and thrombopenia. It is associated with cardiac, renal and limb malformations, dermal pigmentary changes, and a predisposition to the development of malignancies. At the cellular level, it is associated with hypersensitivity to DNA-damaging agents, chromosomal instability (increased chromosome breakage) and defective DNA repair. The c.2808_2811delACAA (p.Ala938Profs*21) frameshift variant in BRCA2 is predicted to introduce a premature translation termination codon. It has been reported in multiple unrelated patients with breast, ovarian or prostate cancer [PMID 8524414, 22144684, 21952622, 22006311, 21324516]. This variant is classified as pathogenic. Close relatives such as parents, siblings, and children have up to a 50% chance of having the same variant(s) as this individual. Parental testing may clarify the inheritance of this variant and may inform recurrence risk.&quot;\n    }\n  ],\n  &quot;identifier&quot;: [\n    {\n      &quot;system&quot;: &quot;http://namingsystem.org/&quot;,\n      &quot;value&quot;: &quot;1587000005.75--inheritedDiseasePathogenicity--3291129713TAAACT&quot;\n    }\n  ],\n  &quot;basedOn&quot;: [\n    {\n      &quot;reference&quot;: &quot;urn:uuid:909636eb-0510-44b6-9bc6-e9f730726f7e&quot;\n    }\n  ],\n  &quot;status&quot;: &quot;final&quot;,\n  &quot;category&quot;: [\n    {\n      &quot;coding&quot;: [\n        {\n          &quot;system&quot;: &quot;http://terminology.hl7.org/CodeSystem/observation-category&quot;,\n          &quot;code&quot;: &quot;laboratory&quot;,\n          &quot;display&quot;: &quot;Laboratory&quot;\n        }\n      ]\n    }\n  ],\n  &quot;code&quot;: {\n    &quot;coding&quot;: [\n      {\n        &quot;system&quot;: &quot;http://loinc.org&quot;,\n        &quot;code&quot;: &quot;53037-8&quot;,\n        &quot;display&quot;: &quot;Genetic variation clinical significance&quot;\n      }\n    ]\n  },\n  &quot;subject&quot;: {\n    &quot;reference&quot;: &quot;urn:uuid:53875482-ee58-41c5-97bf-4af5c1b5bbcd&quot;\n  },\n  &quot;performer&quot;: [\n    {\n      &quot;reference&quot;: &quot;urn:uuid:feb714c7-2910-4d38-91da-dfcdb10271d8&quot;\n    }\n  ],\n  &quot;valueCodeableConcept&quot;: {\n    &quot;coding&quot;: [\n      {\n        &quot;system&quot;: &quot;http://loinc.org&quot;,\n        &quot;code&quot;: &quot;LA6668-3&quot;,\n        &quot;display&quot;: &quot;Pathogenic&quot;\n      }\n    ]\n  },\n  &quot;note&quot;: [\n    {\n      &quot;text&quot;: &quot;PMID 8524414, 22144684, 21952622, 22006311, 21324516; rs80359351; Confirmed by Sanger sequencing&quot;\n    }\n  ],\n  &quot;specimen&quot;: {\n    &quot;reference&quot;: &quot;urn:uuid:b2adc29b-175d-4037-85b7-0159d955d9da&quot;\n  },\n  &quot;derivedFrom&quot;: [\n    {\n      &quot;reference&quot;: &quot;urn:uuid:0ef3b6e1-5c56-4b89-8d10-1e911e11053f&quot;\n    }\n  ],\n  &quot;component&quot;: [\n    {\n      &quot;code&quot;: {\n        &quot;coding&quot;: [\n          {\n            &quot;system&quot;: &quot;http://loinc.org&quot;,\n            &quot;code&quot;: &quot;81259-4&quot;,\n            &quot;display&quot;: &quot;Associated Phenotype&quot;\n          }\n        ]\n      },\n      &quot;valueCodeableConcept&quot;: {\n        &quot;coding&quot;: [\n          {\n            &quot;system&quot;: &quot;https://omim.org/&quot;,\n            &quot;code&quot;: &quot;612555&quot;,\n            &quot;display&quot;: &quot;Familial breast-ovarian cancer 2&quot;\n          }\n        ]\n      }\n    }\n  ]\n}</div>"
        },
        "extension": [
          {
            "url": "http://hl7.org/fhir/StructureDefinition/observation-secondaryFinding",
            "valueCodeableConcept": {
              "text": "See methodology for details."
            }
          },
          {
            "url": "http://namingsystem.org/fhir/StructureDefinition/interpretation-summary-text",
            "valueString": "A heterozygous c.2808_2811delACAA (p.Ala938Profs*21) pathogenic variant in the BRCA2 (NM_000059.3) gene was detected in this individual, which was confirmed by Sanger sequencing. Defects in BRCA2 are the cause of familial breast-ovarian cancer 2 (BROVCA2) [MIM 612555],  Characteristic features in affected families are an early age of onset of breast cancer (often before age 50), increased chance of bilateral cancers (cancer that develop in both breasts, or both ovaries, independently), frequent occurrence of breast cancer among men, increased incidence of tumors of other specific organs, such as the prostate. Reported cancer risks vary based on the study and the type of variants reported in patients. The estimated lifetime risk for breast cancer ranges from 34% to 84% in females and up to 9% in males; with an ovarian cancer risk of between 16 and 27% by age 70. Increased risks in prostate (20%) and pancreatic (2-7%) cancer have also been reported [Genereviews NBK1247]. Defects in BRCA2 are also the defect of Fanconi anemia, complementation group D1 [MIM 605724], an autosomal recessive disorder affecting all bone marrow elements and resulting in anemia, leukopenia and thrombopenia. It is associated with cardiac, renal and limb malformations, dermal pigmentary changes, and a predisposition to the development of malignancies. At the cellular level, it is associated with hypersensitivity to DNA-damaging agents, chromosomal instability (increased chromosome breakage) and defective DNA repair. The c.2808_2811delACAA (p.Ala938Profs*21) frameshift variant in BRCA2 is predicted to introduce a premature translation termination codon. It has been reported in multiple unrelated patients with breast, ovarian or prostate cancer [PMID 8524414, 22144684, 21952622, 22006311, 21324516]. This variant is classified as pathogenic. Close relatives such as parents, siblings, and children have up to a 50% chance of having the same variant(s) as this individual. Parental testing may clarify the inheritance of this variant and may inform recurrence risk."
          }
        ],
        "identifier": [
          {
            "system": "http://namingsystem.org/",
            "value": "1587000005.75--inheritedDiseasePathogenicity--3291129713TAAACT"
          }
        ],
        "basedOn": [
          {
            "reference": "urn:uuid:909636eb-0510-44b6-9bc6-e9f730726f7e"
          }
        ],
        "status": "final",
        "category": [
          {
            "coding": [
              {
                "system": "http://terminology.hl7.org/CodeSystem/observation-category",
                "code": "laboratory",
                "display": "Laboratory"
              }
            ]
          }
        ],
        "code": {
          "coding": [
            {
              "system": "http://loinc.org",
              "code": "53037-8",
              "display": "Genetic variation clinical significance"
            }
          ]
        },
        "subject": {
          "reference": "urn:uuid:53875482-ee58-41c5-97bf-4af5c1b5bbcd"
        },
        "performer": [
          {
            "reference": "urn:uuid:feb714c7-2910-4d38-91da-dfcdb10271d8"
          }
        ],
        "valueCodeableConcept": {
          "coding": [
            {
              "system": "http://loinc.org",
              "code": "LA6668-3",
              "display": "Pathogenic"
            }
          ]
        },
        "note": [
          {
            "text": "PMID 8524414, 22144684, 21952622, 22006311, 21324516; rs80359351; Confirmed by Sanger sequencing"
          }
        ],
        "specimen": {
          "reference": "urn:uuid:b2adc29b-175d-4037-85b7-0159d955d9da"
        },
        "derivedFrom": [
          {
            "reference": "urn:uuid:0ef3b6e1-5c56-4b89-8d10-1e911e11053f"
          }
        ],
        "component": [
          {
            "code": {
              "coding": [
                {
                  "system": "http://loinc.org",
                  "code": "81259-4",
                  "display": "Associated Phenotype"
                }
              ]
            },
            "valueCodeableConcept": {
              "coding": [
                {
                  "system": "https://omim.org/",
                  "code": "612555",
                  "display": "Familial breast-ovarian cancer 2"
                }
              ]
            }
          }
        ]
      },
      "request": {
        "method": "POST",
        "url": "Observation"
      }
    },
    {
      "fullUrl": "urn:uuid:ea58a1c6-0588-4c82-81ef-67a9c4bedef1",
      "resource": {
        "resourceType": "Observation",
        "language": "en-US",
        "text": {
          "status": "generated",
          "div": "<div xmlns=\"http://www.w3.org/1999/xhtml\">{\n  &quot;resourceType&quot;: &quot;Observation&quot;,\n  &quot;language&quot;: &quot;en-US&quot;,\n  &quot;status&quot;: &quot;final&quot;,\n  &quot;code&quot;: {\n    &quot;coding&quot;: [\n      {\n        &quot;system&quot;: &quot;http://loinc.org&quot;,\n        &quot;code&quot;: &quot;86467-8&quot;,\n        &quot;display&quot;: &quot;Report comment&quot;\n      }\n    ]\n  },\n  &quot;subject&quot;: {\n    &quot;reference&quot;: &quot;urn:uuid:53875482-ee58-41c5-97bf-4af5c1b5bbcd&quot;\n  },\n  &quot;performer&quot;: [\n    {\n      &quot;reference&quot;: &quot;urn:uuid:feb714c7-2910-4d38-91da-dfcdb10271d8&quot;\n    }\n  ]\n}</div>"
        },
        "status": "final",
        "code": {
          "coding": [
            {
              "system": "http://loinc.org",
              "code": "86467-8",
              "display": "Report comment"
            }
          ]
        },
        "subject": {
          "reference": "urn:uuid:53875482-ee58-41c5-97bf-4af5c1b5bbcd"
        },
        "performer": [
          {
            "reference": "urn:uuid:feb714c7-2910-4d38-91da-dfcdb10271d8"
          }
        ]
      },
      "request": {
        "method": "POST",
        "url": "Observation"
      }
    },
    {
      "fullUrl": "urn:uuid:a65b515a-882f-49fd-bc06-68fbb8e15af9",
      "resource": {
        "resourceType": "Observation",
        "meta": {
          "profile": [
            "http://hl7.org/fhir/uv/genomics-reporting/StructureDefinition/grouper"
          ]
        },
        "language": "en-US",
        "text": {
          "status": "generated",
          "div": "<div xmlns=\"http://www.w3.org/1999/xhtml\">{\n  &quot;resourceType&quot;: &quot;Observation&quot;,\n  &quot;meta&quot;: {\n    &quot;profile&quot;: [\n      &quot;http://hl7.org/fhir/uv/genomics-reporting/StructureDefinition/grouper&quot;\n    ]\n  },\n  &quot;language&quot;: &quot;en-US&quot;,\n  &quot;basedOn&quot;: [\n    {\n      &quot;reference&quot;: &quot;urn:uuid:909636eb-0510-44b6-9bc6-e9f730726f7e&quot;\n    }\n  ],\n  &quot;status&quot;: &quot;final&quot;,\n  &quot;category&quot;: [\n    {\n      &quot;coding&quot;: [\n        {\n          &quot;system&quot;: &quot;http://terminology.hl7.org/CodeSystem/observation-category&quot;,\n          &quot;code&quot;: &quot;laboratory&quot;,\n          &quot;display&quot;: &quot;Laboratory&quot;\n        }\n      ]\n    }\n  ],\n  &quot;code&quot;: {\n    &quot;coding&quot;: [\n      {\n        &quot;system&quot;: &quot;http://hl7.org/fhir/uv/genomics-reporting/CodeSystem/tbd-codes&quot;,\n        &quot;code&quot;: &quot;grouper&quot;\n      }\n    ]\n  },\n  &quot;subject&quot;: {\n    &quot;reference&quot;: &quot;urn:uuid:53875482-ee58-41c5-97bf-4af5c1b5bbcd&quot;\n  },\n  &quot;performer&quot;: [\n    {\n      &quot;reference&quot;: &quot;urn:uuid:feb714c7-2910-4d38-91da-dfcdb10271d8&quot;\n    }\n  ],\n  &quot;specimen&quot;: {\n    &quot;reference&quot;: &quot;urn:uuid:b2adc29b-175d-4037-85b7-0159d955d9da&quot;\n  },\n  &quot;hasMember&quot;: [\n    {\n      &quot;reference&quot;: &quot;urn:uuid:0ef3b6e1-5c56-4b89-8d10-1e911e11053f&quot;\n    },\n    {\n      &quot;reference&quot;: &quot;urn:uuid:4ebdde8a-3580-494c-ab74-96ac8905488d&quot;\n    },\n    {\n      &quot;reference&quot;: &quot;urn:uuid:c9331b20-a9a7-4cab-9bb8-4309f70dc2d9&quot;\n    }\n  ]\n}</div>"
        },
        "basedOn": [
          {
            "reference": "urn:uuid:909636eb-0510-44b6-9bc6-e9f730726f7e"
          }
        ],
        "status": "final",
        "category": [
          {
            "coding": [
              {
                "system": "http://terminology.hl7.org/CodeSystem/observation-category",
                "code": "laboratory",
                "display": "Laboratory"
              }
            ]
          }
        ],
        "code": {
          "coding": [
            {
              "system": "http://hl7.org/fhir/uv/genomics-reporting/CodeSystem/tbd-codes",
              "code": "grouper"
            }
          ]
        },
        "subject": {
          "reference": "urn:uuid:53875482-ee58-41c5-97bf-4af5c1b5bbcd"
        },
        "performer": [
          {
            "reference": "urn:uuid:feb714c7-2910-4d38-91da-dfcdb10271d8"
          }
        ],
        "specimen": {
          "reference": "urn:uuid:b2adc29b-175d-4037-85b7-0159d955d9da"
        },
        "hasMember": [
          {
            "reference": "urn:uuid:0ef3b6e1-5c56-4b89-8d10-1e911e11053f"
          },
          {
            "reference": "urn:uuid:4ebdde8a-3580-494c-ab74-96ac8905488d"
          },
          {
            "reference": "urn:uuid:c9331b20-a9a7-4cab-9bb8-4309f70dc2d9"
          }
        ]
      },
      "request": {
        "method": "POST",
        "url": "Observation"
      }
    },
    {
      "fullUrl": "urn:uuid:ff768938-cbd7-4d17-a814-79d7ac339c21",
      "resource": {
        "resourceType": "Observation",
        "meta": {
          "profile": [
            "http://hl7.org/fhir/uv/genomics-reporting/StructureDefinition/grouper"
          ]
        },
        "language": "en-US",
        "text": {
          "status": "generated",
          "div": "<div xmlns=\"http://www.w3.org/1999/xhtml\">{\n  &quot;resourceType&quot;: &quot;Observation&quot;,\n  &quot;meta&quot;: {\n    &quot;profile&quot;: [\n      &quot;http://hl7.org/fhir/uv/genomics-reporting/StructureDefinition/grouper&quot;\n    ]\n  },\n  &quot;language&quot;: &quot;en-US&quot;,\n  &quot;basedOn&quot;: [\n    {\n      &quot;reference&quot;: &quot;urn:uuid:909636eb-0510-44b6-9bc6-e9f730726f7e&quot;\n    }\n  ],\n  &quot;status&quot;: &quot;final&quot;,\n  &quot;category&quot;: [\n    {\n      &quot;coding&quot;: [\n        {\n          &quot;system&quot;: &quot;http://terminology.hl7.org/CodeSystem/observation-category&quot;,\n          &quot;code&quot;: &quot;laboratory&quot;,\n          &quot;display&quot;: &quot;Laboratory&quot;\n        }\n      ]\n    }\n  ],\n  &quot;code&quot;: {\n    &quot;coding&quot;: [\n      {\n        &quot;system&quot;: &quot;http://hl7.org/fhir/uv/genomics-reporting/CodeSystem/tbd-codes&quot;,\n        &quot;code&quot;: &quot;grouper&quot;\n      }\n    ]\n  },\n  &quot;subject&quot;: {\n    &quot;reference&quot;: &quot;urn:uuid:53875482-ee58-41c5-97bf-4af5c1b5bbcd&quot;\n  },\n  &quot;performer&quot;: [\n    {\n      &quot;reference&quot;: &quot;urn:uuid:feb714c7-2910-4d38-91da-dfcdb10271d8&quot;\n    }\n  ],\n  &quot;specimen&quot;: {\n    &quot;reference&quot;: &quot;urn:uuid:b2adc29b-175d-4037-85b7-0159d955d9da&quot;\n  },\n  &quot;hasMember&quot;: [\n    {\n      &quot;reference&quot;: &quot;urn:uuid:09e06fba-694b-4e6e-83fe-e3967debad4e&quot;\n    },\n    {\n      &quot;reference&quot;: &quot;urn:uuid:8de90d63-8f8e-4255-92f2-f8017ea44fbc&quot;\n    },\n    {\n      &quot;reference&quot;: &quot;urn:uuid:a32f7fb3-0996-4dc9-8e45-a0027c115362&quot;\n    },\n    {\n      &quot;reference&quot;: &quot;urn:uuid:7bce047e-b7a4-42b4-a1f1-91fd76cf8468&quot;\n    },\n    {\n      &quot;reference&quot;: &quot;urn:uuid:cb90b7fd-2d69-411e-9e01-3704b868b367&quot;\n    },\n    {\n      &quot;reference&quot;: &quot;urn:uuid:ce35914c-1363-44f4-a67d-77ddb37e7533&quot;\n    }\n  ]\n}</div>"
        },
        "basedOn": [
          {
            "reference": "urn:uuid:909636eb-0510-44b6-9bc6-e9f730726f7e"
          }
        ],
        "status": "final",
        "category": [
          {
            "coding": [
              {
                "system": "http://terminology.hl7.org/CodeSystem/observation-category",
                "code": "laboratory",
                "display": "Laboratory"
              }
            ]
          }
        ],
        "code": {
          "coding": [
            {
              "system": "http://hl7.org/fhir/uv/genomics-reporting/CodeSystem/tbd-codes",
              "code": "grouper"
            }
          ]
        },
        "subject": {
          "reference": "urn:uuid:53875482-ee58-41c5-97bf-4af5c1b5bbcd"
        },
        "performer": [
          {
            "reference": "urn:uuid:feb714c7-2910-4d38-91da-dfcdb10271d8"
          }
        ],
        "specimen": {
          "reference": "urn:uuid:b2adc29b-175d-4037-85b7-0159d955d9da"
        },
        "hasMember": [
          {
            "reference": "urn:uuid:09e06fba-694b-4e6e-83fe-e3967debad4e"
          },
          {
            "reference": "urn:uuid:8de90d63-8f8e-4255-92f2-f8017ea44fbc"
          },
          {
            "reference": "urn:uuid:a32f7fb3-0996-4dc9-8e45-a0027c115362"
          },
          {
            "reference": "urn:uuid:7bce047e-b7a4-42b4-a1f1-91fd76cf8468"
          },
          {
            "reference": "urn:uuid:cb90b7fd-2d69-411e-9e01-3704b868b367"
          },
          {
            "reference": "urn:uuid:ce35914c-1363-44f4-a67d-77ddb37e7533"
          }
        ]
      },
      "request": {
        "method": "POST",
        "url": "Observation"
      }
    },
    {
      "fullUrl": "urn:uuid:09e06fba-694b-4e6e-83fe-e3967debad4e",
      "resource": {
        "resourceType": "Observation",
        "meta": {
          "profile": [
            "http://hl7.org/fhir/uv/genomics-reporting/StructureDefinition/medication-metabolism"
          ]
        },
        "language": "en-US",
        "text": {
          "status": "generated",
          "div": "<div xmlns=\"http://www.w3.org/1999/xhtml\">{\n  &quot;resourceType&quot;: &quot;Observation&quot;,\n  &quot;meta&quot;: {\n    &quot;profile&quot;: [\n      &quot;http://hl7.org/fhir/uv/genomics-reporting/StructureDefinition/medication-metabolism&quot;\n    ]\n  },\n  &quot;language&quot;: &quot;en-US&quot;,\n  &quot;extension&quot;: [\n    {\n      &quot;url&quot;: &quot;http://namingsystem.org/fhir/StructureDefinition/interpretation-summary-text&quot;,\n      &quot;valueString&quot;: &quot;This individual is homozygous for the wild type allele of the CYP2C19 gene.  Based on the genotype result, this patient is predicted to have a CYP2C19 normal metabolizer phenotype. This genotype information can be used by patients and clinicians as part of the shared decision-making process for several drugs metabolized by CYP2C19 including clopidogrel, voriconazole, amitriptyline, citalopram and escitalopram.  For clopidogrel, individuals with this diplotype are expected to have normal platelet inhibition and normal residual platelet aggregation in response to clopidogrel. Label recommended dosage and administration are recommended. Refer to current guidelines for dosage and recommendations at https://cpicpgx.org/guidelines/guideline-for-clopidogrel-and-cyp2c19/. For voriconazole, normal voriconazole metabolism is expected in individuals with this genotype. Initiate therapy with recommended standard of care dosing. Refer to current guidelines for dosage and recommendations at https://cpicpgx.org/guidelines/guideline-for-voriconazole-and-cyp2c19/. For citalopram and escitalopram, initiate therapy with recommended starting dose. Refer to current guidelines for dosage and recommendations at https://cpicpgx.org/guidelines/guideline-for-selective-serotonin-reuptake-inhibitors-and-cyp2d6-and-cyp2c19/. For amitriptyline, initiate therapy with recommended starting dose. Refer to current guidelines for dosage and recommendations at https://cpicpgx.org/guidelines/guideline-for-tricyclic-antidepressants-and-cyp2d6-and-cyp2c19/. For citalopram, escitalopram and amitriptyline, if CYP2D6 genotyping is available, refer to the current guidelines for dosing recommendations.&quot;\n    }\n  ],\n  &quot;status&quot;: &quot;final&quot;,\n  &quot;category&quot;: [\n    {\n      &quot;coding&quot;: [\n        {\n          &quot;system&quot;: &quot;http://terminology.hl7.org/CodeSystem/observation-category&quot;,\n          &quot;code&quot;: &quot;laboratory&quot;,\n          &quot;display&quot;: &quot;Laboratory&quot;\n        }\n      ]\n    }\n  ],\n  &quot;code&quot;: {\n    &quot;coding&quot;: [\n      {\n        &quot;system&quot;: &quot;http://loinc.org&quot;,\n        &quot;code&quot;: &quot;53040-2&quot;,\n        &quot;display&quot;: &quot;Genetic variation's effect on drug metabolism&quot;\n      }\n    ]\n  },\n  &quot;subject&quot;: {\n    &quot;reference&quot;: &quot;urn:uuid:53875482-ee58-41c5-97bf-4af5c1b5bbcd&quot;\n  },\n  &quot;performer&quot;: [\n    {\n      &quot;reference&quot;: &quot;urn:uuid:feb714c7-2910-4d38-91da-dfcdb10271d8&quot;\n    }\n  ],\n  &quot;valueCodeableConcept&quot;: {\n    &quot;coding&quot;: [\n      {\n        &quot;system&quot;: &quot;http://loinc.org&quot;,\n        &quot;code&quot;: &quot;LA25391-6&quot;,\n        &quot;display&quot;: &quot;Normal metabolizer&quot;\n      }\n    ]\n  },\n  &quot;derivedFrom&quot;: [\n    {\n      &quot;reference&quot;: &quot;urn:uuid:33436af6-790d-47d1-8a82-1315fe219256&quot;\n    }\n  ],\n  &quot;component&quot;: [\n    {\n      &quot;extension&quot;: [\n        {\n          &quot;url&quot;: &quot;http://hl7.org/fhir/uv/genomics-reporting/StructureDefinition/RelatedArtifact&quot;,\n          &quot;valueRelatedArtifact&quot;: {\n            &quot;type&quot;: &quot;justification&quot;,\n            &quot;url&quot;: &quot;https://cpicpgx.org/guidelines/guideline-for-clopidogrel-and-cyp2c19/&quot;\n          }\n        }\n      ],\n      &quot;code&quot;: {\n        &quot;coding&quot;: [\n          {\n            &quot;system&quot;: &quot;http://loinc.org&quot;,\n            &quot;code&quot;: &quot;51963-7&quot;,\n            &quot;display&quot;: &quot;Medication assessed&quot;\n          }\n        ]\n      },\n      &quot;valueCodeableConcept&quot;: {\n        &quot;coding&quot;: [\n          {\n            &quot;system&quot;: &quot;http://ncimeta.nci.nih.gov&quot;,\n            &quot;code&quot;: &quot;C0070166&quot;,\n            &quot;display&quot;: &quot;clopidogrel&quot;\n          }\n        ]\n      }\n    },\n    {\n      &quot;extension&quot;: [\n        {\n          &quot;url&quot;: &quot;http://hl7.org/fhir/uv/genomics-reporting/StructureDefinition/RelatedArtifact&quot;,\n          &quot;valueRelatedArtifact&quot;: {\n            &quot;type&quot;: &quot;justification&quot;,\n            &quot;url&quot;: &quot;https://cpicpgx.org/guidelines/guideline-for-voriconazole-and-cyp2c19/&quot;\n          }\n        }\n      ],\n      &quot;code&quot;: {\n        &quot;coding&quot;: [\n          {\n            &quot;system&quot;: &quot;http://loinc.org&quot;,\n            &quot;code&quot;: &quot;51963-7&quot;,\n            &quot;display&quot;: &quot;Medication assessed&quot;\n          }\n        ]\n      },\n      &quot;valueCodeableConcept&quot;: {\n        &quot;coding&quot;: [\n          {\n            &quot;system&quot;: &quot;http://ncimeta.nci.nih.gov&quot;,\n            &quot;code&quot;: &quot;C0393080&quot;,\n            &quot;display&quot;: &quot;voriconazole&quot;\n          }\n        ]\n      }\n    },\n    {\n      &quot;extension&quot;: [\n        {\n          &quot;url&quot;: &quot;http://hl7.org/fhir/uv/genomics-reporting/StructureDefinition/RelatedArtifact&quot;,\n          &quot;valueRelatedArtifact&quot;: {\n            &quot;type&quot;: &quot;justification&quot;,\n            &quot;url&quot;: &quot;https://cpicpgx.org/guidelines/guideline-for-selective-serotonin-reuptake-inhibitors-and-cyp2d6-and-cyp2c19/&quot;\n          }\n        }\n      ],\n      &quot;code&quot;: {\n        &quot;coding&quot;: [\n          {\n            &quot;system&quot;: &quot;http://loinc.org&quot;,\n            &quot;code&quot;: &quot;51963-7&quot;,\n            &quot;display&quot;: &quot;Medication assessed&quot;\n          }\n        ]\n      },\n      &quot;valueCodeableConcept&quot;: {\n        &quot;coding&quot;: [\n          {\n            &quot;system&quot;: &quot;http://ncimeta.nci.nih.gov&quot;,\n            &quot;code&quot;: &quot;C0008845&quot;,\n            &quot;display&quot;: &quot;citalopram&quot;\n          }\n        ]\n      }\n    },\n    {\n      &quot;extension&quot;: [\n        {\n          &quot;url&quot;: &quot;http://hl7.org/fhir/uv/genomics-reporting/StructureDefinition/RelatedArtifact&quot;,\n          &quot;valueRelatedArtifact&quot;: {\n            &quot;type&quot;: &quot;justification&quot;,\n            &quot;url&quot;: &quot;https://cpicpgx.org/guidelines/guideline-for-selective-serotonin-reuptake-inhibitors-and-cyp2d6-and-cyp2c19/&quot;\n          }\n        }\n      ],\n      &quot;code&quot;: {\n        &quot;coding&quot;: [\n          {\n            &quot;system&quot;: &quot;http://loinc.org&quot;,\n            &quot;code&quot;: &quot;51963-7&quot;,\n            &quot;display&quot;: &quot;Medication assessed&quot;\n          }\n        ]\n      },\n      &quot;valueCodeableConcept&quot;: {\n        &quot;coding&quot;: [\n          {\n            &quot;system&quot;: &quot;http://ncimeta.nci.nih.gov&quot;,\n            &quot;code&quot;: &quot;C1099456&quot;,\n            &quot;display&quot;: &quot;escitalopram&quot;\n          }\n        ]\n      }\n    },\n    {\n      &quot;extension&quot;: [\n        {\n          &quot;url&quot;: &quot;http://hl7.org/fhir/uv/genomics-reporting/StructureDefinition/RelatedArtifact&quot;,\n          &quot;valueRelatedArtifact&quot;: {\n            &quot;type&quot;: &quot;justification&quot;,\n            &quot;url&quot;: &quot;https://cpicpgx.org/guidelines/guideline-for-tricyclic-antidepressants-and-cyp2d6-and-cyp2c19/&quot;\n          }\n        }\n      ],\n      &quot;code&quot;: {\n        &quot;coding&quot;: [\n          {\n            &quot;system&quot;: &quot;http://loinc.org&quot;,\n            &quot;code&quot;: &quot;51963-7&quot;,\n            &quot;display&quot;: &quot;Medication assessed&quot;\n          }\n        ]\n      },\n      &quot;valueCodeableConcept&quot;: {\n        &quot;coding&quot;: [\n          {\n            &quot;system&quot;: &quot;http://ncimeta.nci.nih.gov&quot;,\n            &quot;code&quot;: &quot;C0002600&quot;,\n            &quot;display&quot;: &quot;amitriptyline&quot;\n          }\n        ]\n      }\n    }\n  ]\n}</div>"
        },
        "extension": [
          {
            "url": "http://namingsystem.org/fhir/StructureDefinition/interpretation-summary-text",
            "valueString": "This individual is homozygous for the wild type allele of the CYP2C19 gene.  Based on the genotype result, this patient is predicted to have a CYP2C19 normal metabolizer phenotype. This genotype information can be used by patients and clinicians as part of the shared decision-making process for several drugs metabolized by CYP2C19 including clopidogrel, voriconazole, amitriptyline, citalopram and escitalopram.  For clopidogrel, individuals with this diplotype are expected to have normal platelet inhibition and normal residual platelet aggregation in response to clopidogrel. Label recommended dosage and administration are recommended. Refer to current guidelines for dosage and recommendations at https://cpicpgx.org/guidelines/guideline-for-clopidogrel-and-cyp2c19/. For voriconazole, normal voriconazole metabolism is expected in individuals with this genotype. Initiate therapy with recommended standard of care dosing. Refer to current guidelines for dosage and recommendations at https://cpicpgx.org/guidelines/guideline-for-voriconazole-and-cyp2c19/. For citalopram and escitalopram, initiate therapy with recommended starting dose. Refer to current guidelines for dosage and recommendations at https://cpicpgx.org/guidelines/guideline-for-selective-serotonin-reuptake-inhibitors-and-cyp2d6-and-cyp2c19/. For amitriptyline, initiate therapy with recommended starting dose. Refer to current guidelines for dosage and recommendations at https://cpicpgx.org/guidelines/guideline-for-tricyclic-antidepressants-and-cyp2d6-and-cyp2c19/. For citalopram, escitalopram and amitriptyline, if CYP2D6 genotyping is available, refer to the current guidelines for dosing recommendations."
          }
        ],
        "status": "final",
        "category": [
          {
            "coding": [
              {
                "system": "http://terminology.hl7.org/CodeSystem/observation-category",
                "code": "laboratory",
                "display": "Laboratory"
              }
            ]
          }
        ],
        "code": {
          "coding": [
            {
              "system": "http://loinc.org",
              "code": "53040-2",
              "display": "Genetic variation's effect on drug metabolism"
            }
          ]
        },
        "subject": {
          "reference": "urn:uuid:53875482-ee58-41c5-97bf-4af5c1b5bbcd"
        },
        "performer": [
          {
            "reference": "urn:uuid:feb714c7-2910-4d38-91da-dfcdb10271d8"
          }
        ],
        "valueCodeableConcept": {
          "coding": [
            {
              "system": "http://loinc.org",
              "code": "LA25391-6",
              "display": "Normal metabolizer"
            }
          ]
        },
        "derivedFrom": [
          {
            "reference": "urn:uuid:33436af6-790d-47d1-8a82-1315fe219256"
          }
        ],
        "component": [
          {
            "extension": [
              {
                "url": "http://hl7.org/fhir/uv/genomics-reporting/StructureDefinition/RelatedArtifact",
                "valueRelatedArtifact": {
                  "type": "justification",
                  "url": "https://cpicpgx.org/guidelines/guideline-for-clopidogrel-and-cyp2c19/"
                }
              }
            ],
            "code": {
              "coding": [
                {
                  "system": "http://loinc.org",
                  "code": "51963-7",
                  "display": "Medication assessed"
                }
              ]
            },
            "valueCodeableConcept": {
              "coding": [
                {
                  "system": "http://ncimeta.nci.nih.gov",
                  "code": "C0070166",
                  "display": "clopidogrel"
                }
              ]
            }
          },
          {
            "extension": [
              {
                "url": "http://hl7.org/fhir/uv/genomics-reporting/StructureDefinition/RelatedArtifact",
                "valueRelatedArtifact": {
                  "type": "justification",
                  "url": "https://cpicpgx.org/guidelines/guideline-for-voriconazole-and-cyp2c19/"
                }
              }
            ],
            "code": {
              "coding": [
                {
                  "system": "http://loinc.org",
                  "code": "51963-7",
                  "display": "Medication assessed"
                }
              ]
            },
            "valueCodeableConcept": {
              "coding": [
                {
                  "system": "http://ncimeta.nci.nih.gov",
                  "code": "C0393080",
                  "display": "voriconazole"
                }
              ]
            }
          },
          {
            "extension": [
              {
                "url": "http://hl7.org/fhir/uv/genomics-reporting/StructureDefinition/RelatedArtifact",
                "valueRelatedArtifact": {
                  "type": "justification",
                  "url": "https://cpicpgx.org/guidelines/guideline-for-selective-serotonin-reuptake-inhibitors-and-cyp2d6-and-cyp2c19/"
                }
              }
            ],
            "code": {
              "coding": [
                {
                  "system": "http://loinc.org",
                  "code": "51963-7",
                  "display": "Medication assessed"
                }
              ]
            },
            "valueCodeableConcept": {
              "coding": [
                {
                  "system": "http://ncimeta.nci.nih.gov",
                  "code": "C0008845",
                  "display": "citalopram"
                }
              ]
            }
          },
          {
            "extension": [
              {
                "url": "http://hl7.org/fhir/uv/genomics-reporting/StructureDefinition/RelatedArtifact",
                "valueRelatedArtifact": {
                  "type": "justification",
                  "url": "https://cpicpgx.org/guidelines/guideline-for-selective-serotonin-reuptake-inhibitors-and-cyp2d6-and-cyp2c19/"
                }
              }
            ],
            "code": {
              "coding": [
                {
                  "system": "http://loinc.org",
                  "code": "51963-7",
                  "display": "Medication assessed"
                }
              ]
            },
            "valueCodeableConcept": {
              "coding": [
                {
                  "system": "http://ncimeta.nci.nih.gov",
                  "code": "C1099456",
                  "display": "escitalopram"
                }
              ]
            }
          },
          {
            "extension": [
              {
                "url": "http://hl7.org/fhir/uv/genomics-reporting/StructureDefinition/RelatedArtifact",
                "valueRelatedArtifact": {
                  "type": "justification",
                  "url": "https://cpicpgx.org/guidelines/guideline-for-tricyclic-antidepressants-and-cyp2d6-and-cyp2c19/"
                }
              }
            ],
            "code": {
              "coding": [
                {
                  "system": "http://loinc.org",
                  "code": "51963-7",
                  "display": "Medication assessed"
                }
              ]
            },
            "valueCodeableConcept": {
              "coding": [
                {
                  "system": "http://ncimeta.nci.nih.gov",
                  "code": "C0002600",
                  "display": "amitriptyline"
                }
              ]
            }
          }
        ]
      },
      "request": {
        "method": "POST",
        "url": "Observation"
      }
    },
    {
      "fullUrl": "urn:uuid:8de90d63-8f8e-4255-92f2-f8017ea44fbc",
      "resource": {
        "resourceType": "Observation",
        "meta": {
          "profile": [
            "http://hl7.org/fhir/uv/genomics-reporting/StructureDefinition/medication-metabolism"
          ]
        },
        "language": "en-US",
        "text": {
          "status": "generated",
          "div": "<div xmlns=\"http://www.w3.org/1999/xhtml\">{\n  &quot;resourceType&quot;: &quot;Observation&quot;,\n  &quot;meta&quot;: {\n    &quot;profile&quot;: [\n      &quot;http://hl7.org/fhir/uv/genomics-reporting/StructureDefinition/medication-metabolism&quot;\n    ]\n  },\n  &quot;language&quot;: &quot;en-US&quot;,\n  &quot;extension&quot;: [\n    {\n      &quot;url&quot;: &quot;http://namingsystem.org/fhir/StructureDefinition/interpretation-summary-text&quot;,\n      &quot;valueString&quot;: &quot;This individual is heterozygous for a non-functional allele of the DPYD gene.  This genotype information can be used by patients and clinicians as part of the shared decision-making process for fluoropyrimidines (capecitabine, fluorouracil, tegafur). Based on the genotype result, this patient is predicted to have a decreased DPD activity phenotype. Individuals with this diplotype are expected to have increased risk for severe or even fatal drug toxicity when treated with fluoropyrimidine drugs. Recommendations include to start with at least a 50% reduction in starting dose, followed by titration of dose based on toxicityb or pharmacokinetic test (if available). Refer to current guidelines for dosage and recommendations at https://cpicpgx.org/guidelines/guideline-for-fluoropyrimidines-and-dpyd/.&quot;\n    }\n  ],\n  &quot;status&quot;: &quot;final&quot;,\n  &quot;category&quot;: [\n    {\n      &quot;coding&quot;: [\n        {\n          &quot;system&quot;: &quot;http://terminology.hl7.org/CodeSystem/observation-category&quot;,\n          &quot;code&quot;: &quot;laboratory&quot;,\n          &quot;display&quot;: &quot;Laboratory&quot;\n        }\n      ]\n    }\n  ],\n  &quot;code&quot;: {\n    &quot;coding&quot;: [\n      {\n        &quot;system&quot;: &quot;http://loinc.org&quot;,\n        &quot;code&quot;: &quot;53040-2&quot;,\n        &quot;display&quot;: &quot;Genetic variation's effect on drug metabolism&quot;\n      }\n    ]\n  },\n  &quot;subject&quot;: {\n    &quot;reference&quot;: &quot;urn:uuid:53875482-ee58-41c5-97bf-4af5c1b5bbcd&quot;\n  },\n  &quot;performer&quot;: [\n    {\n      &quot;reference&quot;: &quot;urn:uuid:feb714c7-2910-4d38-91da-dfcdb10271d8&quot;\n    }\n  ],\n  &quot;valueCodeableConcept&quot;: {\n    &quot;coding&quot;: [\n      {\n        &quot;system&quot;: &quot;http://loinc.org&quot;,\n        &quot;code&quot;: &quot;LA10317-8&quot;,\n        &quot;display&quot;: &quot;Intermediate metabolizer&quot;\n      }\n    ]\n  },\n  &quot;derivedFrom&quot;: [\n    {\n      &quot;reference&quot;: &quot;urn:uuid:77fc9e0b-a5ef-4259-9505-1449fcb8b9d2&quot;\n    }\n  ],\n  &quot;component&quot;: [\n    {\n      &quot;extension&quot;: [\n        {\n          &quot;url&quot;: &quot;http://hl7.org/fhir/uv/genomics-reporting/StructureDefinition/RelatedArtifact&quot;,\n          &quot;valueRelatedArtifact&quot;: {\n            &quot;type&quot;: &quot;justification&quot;,\n            &quot;url&quot;: &quot;https://cpicpgx.org/guidelines/guideline-for-fluoropyrimidines-and-dpyd/&quot;\n          }\n        }\n      ],\n      &quot;code&quot;: {\n        &quot;coding&quot;: [\n          {\n            &quot;system&quot;: &quot;http://loinc.org&quot;,\n            &quot;code&quot;: &quot;51963-7&quot;,\n            &quot;display&quot;: &quot;Medication assessed&quot;\n          }\n        ]\n      },\n      &quot;valueCodeableConcept&quot;: {\n        &quot;coding&quot;: [\n          {\n            &quot;system&quot;: &quot;http://ncimeta.nci.nih.gov&quot;,\n            &quot;code&quot;: &quot;C0671970&quot;,\n            &quot;display&quot;: &quot;capecitabine&quot;\n          }\n        ]\n      }\n    },\n    {\n      &quot;extension&quot;: [\n        {\n          &quot;url&quot;: &quot;http://hl7.org/fhir/uv/genomics-reporting/StructureDefinition/RelatedArtifact&quot;,\n          &quot;valueRelatedArtifact&quot;: {\n            &quot;type&quot;: &quot;justification&quot;,\n            &quot;url&quot;: &quot;https://cpicpgx.org/guidelines/guideline-for-fluoropyrimidines-and-dpyd/&quot;\n          }\n        }\n      ],\n      &quot;code&quot;: {\n        &quot;coding&quot;: [\n          {\n            &quot;system&quot;: &quot;http://loinc.org&quot;,\n            &quot;code&quot;: &quot;51963-7&quot;,\n            &quot;display&quot;: &quot;Medication assessed&quot;\n          }\n        ]\n      },\n      &quot;valueCodeableConcept&quot;: {\n        &quot;coding&quot;: [\n          {\n            &quot;system&quot;: &quot;http://ncimeta.nci.nih.gov&quot;,\n            &quot;code&quot;: &quot;C0016360&quot;,\n            &quot;display&quot;: &quot;fluorouracil&quot;\n          }\n        ]\n      }\n    },\n    {\n      &quot;extension&quot;: [\n        {\n          &quot;url&quot;: &quot;http://hl7.org/fhir/uv/genomics-reporting/StructureDefinition/RelatedArtifact&quot;,\n          &quot;valueRelatedArtifact&quot;: {\n            &quot;type&quot;: &quot;justification&quot;,\n            &quot;url&quot;: &quot;https://cpicpgx.org/guidelines/guideline-for-fluoropyrimidines-and-dpyd/&quot;\n          }\n        }\n      ],\n      &quot;code&quot;: {\n        &quot;coding&quot;: [\n          {\n            &quot;system&quot;: &quot;http://loinc.org&quot;,\n            &quot;code&quot;: &quot;51963-7&quot;,\n            &quot;display&quot;: &quot;Medication assessed&quot;\n          }\n        ]\n      },\n      &quot;valueCodeableConcept&quot;: {\n        &quot;coding&quot;: [\n          {\n            &quot;system&quot;: &quot;http://ncimeta.nci.nih.gov&quot;,\n            &quot;code&quot;: &quot;C0016778&quot;,\n            &quot;display&quot;: &quot;tegafur&quot;\n          }\n        ]\n      }\n    }\n  ]\n}</div>"
        },
        "extension": [
          {
            "url": "http://namingsystem.org/fhir/StructureDefinition/interpretation-summary-text",
            "valueString": "This individual is heterozygous for a non-functional allele of the DPYD gene.  This genotype information can be used by patients and clinicians as part of the shared decision-making process for fluoropyrimidines (capecitabine, fluorouracil, tegafur). Based on the genotype result, this patient is predicted to have a decreased DPD activity phenotype. Individuals with this diplotype are expected to have increased risk for severe or even fatal drug toxicity when treated with fluoropyrimidine drugs. Recommendations include to start with at least a 50% reduction in starting dose, followed by titration of dose based on toxicityb or pharmacokinetic test (if available). Refer to current guidelines for dosage and recommendations at https://cpicpgx.org/guidelines/guideline-for-fluoropyrimidines-and-dpyd/."
          }
        ],
        "status": "final",
        "category": [
          {
            "coding": [
              {
                "system": "http://terminology.hl7.org/CodeSystem/observation-category",
                "code": "laboratory",
                "display": "Laboratory"
              }
            ]
          }
        ],
        "code": {
          "coding": [
            {
              "system": "http://loinc.org",
              "code": "53040-2",
              "display": "Genetic variation's effect on drug metabolism"
            }
          ]
        },
        "subject": {
          "reference": "urn:uuid:53875482-ee58-41c5-97bf-4af5c1b5bbcd"
        },
        "performer": [
          {
            "reference": "urn:uuid:feb714c7-2910-4d38-91da-dfcdb10271d8"
          }
        ],
        "valueCodeableConcept": {
          "coding": [
            {
              "system": "http://loinc.org",
              "code": "LA10317-8",
              "display": "Intermediate metabolizer"
            }
          ]
        },
        "derivedFrom": [
          {
            "reference": "urn:uuid:77fc9e0b-a5ef-4259-9505-1449fcb8b9d2"
          }
        ],
        "component": [
          {
            "extension": [
              {
                "url": "http://hl7.org/fhir/uv/genomics-reporting/StructureDefinition/RelatedArtifact",
                "valueRelatedArtifact": {
                  "type": "justification",
                  "url": "https://cpicpgx.org/guidelines/guideline-for-fluoropyrimidines-and-dpyd/"
                }
              }
            ],
            "code": {
              "coding": [
                {
                  "system": "http://loinc.org",
                  "code": "51963-7",
                  "display": "Medication assessed"
                }
              ]
            },
            "valueCodeableConcept": {
              "coding": [
                {
                  "system": "http://ncimeta.nci.nih.gov",
                  "code": "C0671970",
                  "display": "capecitabine"
                }
              ]
            }
          },
          {
            "extension": [
              {
                "url": "http://hl7.org/fhir/uv/genomics-reporting/StructureDefinition/RelatedArtifact",
                "valueRelatedArtifact": {
                  "type": "justification",
                  "url": "https://cpicpgx.org/guidelines/guideline-for-fluoropyrimidines-and-dpyd/"
                }
              }
            ],
            "code": {
              "coding": [
                {
                  "system": "http://loinc.org",
                  "code": "51963-7",
                  "display": "Medication assessed"
                }
              ]
            },
            "valueCodeableConcept": {
              "coding": [
                {
                  "system": "http://ncimeta.nci.nih.gov",
                  "code": "C0016360",
                  "display": "fluorouracil"
                }
              ]
            }
          },
          {
            "extension": [
              {
                "url": "http://hl7.org/fhir/uv/genomics-reporting/StructureDefinition/RelatedArtifact",
                "valueRelatedArtifact": {
                  "type": "justification",
                  "url": "https://cpicpgx.org/guidelines/guideline-for-fluoropyrimidines-and-dpyd/"
                }
              }
            ],
            "code": {
              "coding": [
                {
                  "system": "http://loinc.org",
                  "code": "51963-7",
                  "display": "Medication assessed"
                }
              ]
            },
            "valueCodeableConcept": {
              "coding": [
                {
                  "system": "http://ncimeta.nci.nih.gov",
                  "code": "C0016778",
                  "display": "tegafur"
                }
              ]
            }
          }
        ]
      },
      "request": {
        "method": "POST",
        "url": "Observation"
      }
    },
    {
      "fullUrl": "urn:uuid:a32f7fb3-0996-4dc9-8e45-a0027c115362",
      "resource": {
        "resourceType": "Observation",
        "meta": {
          "profile": [
            "http://hl7.org/fhir/uv/genomics-reporting/StructureDefinition/medication-efficacy"
          ]
        },
        "language": "en-US",
        "text": {
          "status": "generated",
          "div": "<div xmlns=\"http://www.w3.org/1999/xhtml\">{\n  &quot;resourceType&quot;: &quot;Observation&quot;,\n  &quot;meta&quot;: {\n    &quot;profile&quot;: [\n      &quot;http://hl7.org/fhir/uv/genomics-reporting/StructureDefinition/medication-efficacy&quot;\n    ]\n  },\n  &quot;language&quot;: &quot;en-US&quot;,\n  &quot;extension&quot;: [\n    {\n      &quot;url&quot;: &quot;http://namingsystem.org/fhir/StructureDefinition/interpretation-summary-text&quot;,\n      &quot;valueString&quot;: &quot;This individual is homozygous for the rs12979860 T/T allele in the IFNL3 gene. This variant is the strongest baseline predictor of response to peginterferon alfa and ribavirin therapy in previously untreated patients and can be used by patients and clinicians as part of the shared decision-making process for initiating treatment for hepatitis C virus infection. Based on the genotype result, this patient is predicted to have a reduced likelihood of response (lower sustained virological response rate) to peginterferon alfa and ribavirin therapy as compared with patients with favorable response genotype. Refer to current guidelines for dosage and recommendations at https://cpicpgx.org/guidelines/guideline-for-peg-interferon-alpha-based-regimens-and-ifnl3/.&quot;\n    }\n  ],\n  &quot;status&quot;: &quot;final&quot;,\n  &quot;category&quot;: [\n    {\n      &quot;coding&quot;: [\n        {\n          &quot;system&quot;: &quot;http://terminology.hl7.org/CodeSystem/observation-category&quot;,\n          &quot;code&quot;: &quot;laboratory&quot;,\n          &quot;display&quot;: &quot;Laboratory&quot;\n        }\n      ]\n    }\n  ],\n  &quot;code&quot;: {\n    &quot;coding&quot;: [\n      {\n        &quot;system&quot;: &quot;http://loinc.org&quot;,\n        &quot;code&quot;: &quot;51961-1&quot;,\n        &quot;display&quot;: &quot;Genetic variation's effect on drug efficacy&quot;\n      }\n    ]\n  },\n  &quot;subject&quot;: {\n    &quot;reference&quot;: &quot;urn:uuid:53875482-ee58-41c5-97bf-4af5c1b5bbcd&quot;\n  },\n  &quot;performer&quot;: [\n    {\n      &quot;reference&quot;: &quot;urn:uuid:feb714c7-2910-4d38-91da-dfcdb10271d8&quot;\n    }\n  ],\n  &quot;valueCodeableConcept&quot;: {\n    &quot;text&quot;: &quot;Unfavorable response genotype&quot;\n  },\n  &quot;derivedFrom&quot;: [\n    {\n      &quot;reference&quot;: &quot;urn:uuid:81e2cb5c-f6e3-48f5-9fd1-ae9b2afbda78&quot;\n    }\n  ],\n  &quot;component&quot;: [\n    {\n      &quot;extension&quot;: [\n        {\n          &quot;url&quot;: &quot;http://hl7.org/fhir/uv/genomics-reporting/StructureDefinition/RelatedArtifact&quot;,\n          &quot;valueRelatedArtifact&quot;: {\n            &quot;type&quot;: &quot;justification&quot;,\n            &quot;url&quot;: &quot;https://cpicpgx.org/guidelines/guideline-for-peg-interferon-alpha-based-regimens-and-ifnl3/&quot;\n          }\n        }\n      ],\n      &quot;code&quot;: {\n        &quot;coding&quot;: [\n          {\n            &quot;system&quot;: &quot;http://loinc.org&quot;,\n            &quot;code&quot;: &quot;51963-7&quot;,\n            &quot;display&quot;: &quot;Medication assessed&quot;\n          }\n        ]\n      },\n      &quot;valueCodeableConcept&quot;: {\n        &quot;coding&quot;: [\n          {\n            &quot;system&quot;: &quot;http://ncimeta.nci.nih.gov&quot;,\n            &quot;code&quot;: &quot;C0391001&quot;,\n            &quot;display&quot;: &quot;peginterferon alfa-2a&quot;\n          }\n        ]\n      }\n    },\n    {\n      &quot;extension&quot;: [\n        {\n          &quot;url&quot;: &quot;http://hl7.org/fhir/uv/genomics-reporting/StructureDefinition/RelatedArtifact&quot;,\n          &quot;valueRelatedArtifact&quot;: {\n            &quot;type&quot;: &quot;justification&quot;,\n            &quot;url&quot;: &quot;https://cpicpgx.org/guidelines/guideline-for-peg-interferon-alpha-based-regimens-and-ifnl3/&quot;\n          }\n        }\n      ],\n      &quot;code&quot;: {\n        &quot;coding&quot;: [\n          {\n            &quot;system&quot;: &quot;http://loinc.org&quot;,\n            &quot;code&quot;: &quot;51963-7&quot;,\n            &quot;display&quot;: &quot;Medication assessed&quot;\n          }\n        ]\n      },\n      &quot;valueCodeableConcept&quot;: {\n        &quot;coding&quot;: [\n          {\n            &quot;system&quot;: &quot;http://ncimeta.nci.nih.gov&quot;,\n            &quot;code&quot;: &quot;C0796545&quot;,\n            &quot;display&quot;: &quot;peginterferon alfa-2b&quot;\n          }\n        ]\n      }\n    },\n    {\n      &quot;extension&quot;: [\n        {\n          &quot;url&quot;: &quot;http://hl7.org/fhir/uv/genomics-reporting/StructureDefinition/RelatedArtifact&quot;,\n          &quot;valueRelatedArtifact&quot;: {\n            &quot;type&quot;: &quot;justification&quot;,\n            &quot;url&quot;: &quot;https://cpicpgx.org/guidelines/guideline-for-peg-interferon-alpha-based-regimens-and-ifnl3/&quot;\n          }\n        }\n      ],\n      &quot;code&quot;: {\n        &quot;coding&quot;: [\n          {\n            &quot;system&quot;: &quot;http://loinc.org&quot;,\n            &quot;code&quot;: &quot;51963-7&quot;,\n            &quot;display&quot;: &quot;Medication assessed&quot;\n          }\n        ]\n      },\n      &quot;valueCodeableConcept&quot;: {\n        &quot;coding&quot;: [\n          {\n            &quot;system&quot;: &quot;http://ncimeta.nci.nih.gov&quot;,\n            &quot;code&quot;: &quot;C0035525&quot;,\n            &quot;display&quot;: &quot;ribavirin&quot;\n          }\n        ]\n      }\n    }\n  ]\n}</div>"
        },
        "extension": [
          {
            "url": "http://namingsystem.org/fhir/StructureDefinition/interpretation-summary-text",
            "valueString": "This individual is homozygous for the rs12979860 T/T allele in the IFNL3 gene. This variant is the strongest baseline predictor of response to peginterferon alfa and ribavirin therapy in previously untreated patients and can be used by patients and clinicians as part of the shared decision-making process for initiating treatment for hepatitis C virus infection. Based on the genotype result, this patient is predicted to have a reduced likelihood of response (lower sustained virological response rate) to peginterferon alfa and ribavirin therapy as compared with patients with favorable response genotype. Refer to current guidelines for dosage and recommendations at https://cpicpgx.org/guidelines/guideline-for-peg-interferon-alpha-based-regimens-and-ifnl3/."
          }
        ],
        "status": "final",
        "category": [
          {
            "coding": [
              {
                "system": "http://terminology.hl7.org/CodeSystem/observation-category",
                "code": "laboratory",
                "display": "Laboratory"
              }
            ]
          }
        ],
        "code": {
          "coding": [
            {
              "system": "http://loinc.org",
              "code": "51961-1",
              "display": "Genetic variation's effect on drug efficacy"
            }
          ]
        },
        "subject": {
          "reference": "urn:uuid:53875482-ee58-41c5-97bf-4af5c1b5bbcd"
        },
        "performer": [
          {
            "reference": "urn:uuid:feb714c7-2910-4d38-91da-dfcdb10271d8"
          }
        ],
        "valueCodeableConcept": {
          "text": "Unfavorable response genotype"
        },
        "derivedFrom": [
          {
            "reference": "urn:uuid:81e2cb5c-f6e3-48f5-9fd1-ae9b2afbda78"
          }
        ],
        "component": [
          {
            "extension": [
              {
                "url": "http://hl7.org/fhir/uv/genomics-reporting/StructureDefinition/RelatedArtifact",
                "valueRelatedArtifact": {
                  "type": "justification",
                  "url": "https://cpicpgx.org/guidelines/guideline-for-peg-interferon-alpha-based-regimens-and-ifnl3/"
                }
              }
            ],
            "code": {
              "coding": [
                {
                  "system": "http://loinc.org",
                  "code": "51963-7",
                  "display": "Medication assessed"
                }
              ]
            },
            "valueCodeableConcept": {
              "coding": [
                {
                  "system": "http://ncimeta.nci.nih.gov",
                  "code": "C0391001",
                  "display": "peginterferon alfa-2a"
                }
              ]
            }
          },
          {
            "extension": [
              {
                "url": "http://hl7.org/fhir/uv/genomics-reporting/StructureDefinition/RelatedArtifact",
                "valueRelatedArtifact": {
                  "type": "justification",
                  "url": "https://cpicpgx.org/guidelines/guideline-for-peg-interferon-alpha-based-regimens-and-ifnl3/"
                }
              }
            ],
            "code": {
              "coding": [
                {
                  "system": "http://loinc.org",
                  "code": "51963-7",
                  "display": "Medication assessed"
                }
              ]
            },
            "valueCodeableConcept": {
              "coding": [
                {
                  "system": "http://ncimeta.nci.nih.gov",
                  "code": "C0796545",
                  "display": "peginterferon alfa-2b"
                }
              ]
            }
          },
          {
            "extension": [
              {
                "url": "http://hl7.org/fhir/uv/genomics-reporting/StructureDefinition/RelatedArtifact",
                "valueRelatedArtifact": {
                  "type": "justification",
                  "url": "https://cpicpgx.org/guidelines/guideline-for-peg-interferon-alpha-based-regimens-and-ifnl3/"
                }
              }
            ],
            "code": {
              "coding": [
                {
                  "system": "http://loinc.org",
                  "code": "51963-7",
                  "display": "Medication assessed"
                }
              ]
            },
            "valueCodeableConcept": {
              "coding": [
                {
                  "system": "http://ncimeta.nci.nih.gov",
                  "code": "C0035525",
                  "display": "ribavirin"
                }
              ]
            }
          }
        ]
      },
      "request": {
        "method": "POST",
        "url": "Observation"
      }
    },
    {
      "fullUrl": "urn:uuid:7bce047e-b7a4-42b4-a1f1-91fd76cf8468",
      "resource": {
        "resourceType": "Observation",
        "meta": {
          "profile": [
            "http://hl7.org/fhir/uv/genomics-reporting/StructureDefinition/medication-transporter"
          ]
        },
        "language": "en-US",
        "text": {
          "status": "generated",
          "div": "<div xmlns=\"http://www.w3.org/1999/xhtml\">{\n  &quot;resourceType&quot;: &quot;Observation&quot;,\n  &quot;meta&quot;: {\n    &quot;profile&quot;: [\n      &quot;http://hl7.org/fhir/uv/genomics-reporting/StructureDefinition/medication-transporter&quot;\n    ]\n  },\n  &quot;language&quot;: &quot;en-US&quot;,\n  &quot;extension&quot;: [\n    {\n      &quot;url&quot;: &quot;http://namingsystem.org/fhir/StructureDefinition/interpretation-summary-text&quot;,\n      &quot;valueString&quot;: &quot;This individual is heterozygous for the rs4149056 T/C allele in the SLCO1B1 gene.  This genotype information can be used by patients and clinicians as part of the shared decision-making process for simvastatin and other drugs affected by SLCO1B1. Based on the genotype result, this patient is predicted to have intermediate SLCO1B1 function. This patient may be at risk for an adverse response to medications that are affected by SLCO1B1. To avoid an untoward drug response, dose adjustments may be necessary for medications affected by SLCO1B1. If simvastatin is prescribed to a patient with intermediate SLCO1B1 function, there is an increased risk for developing simvastatin-associated myopathy; such patients may need a lower starting dose of simvastatin or an alternate statin agent. Refer to current guidelines for dosage and recommendations at https://cpicpgx.org/guidelines/guideline-for-simvastatin-and-slco1b1/.&quot;\n    }\n  ],\n  &quot;status&quot;: &quot;final&quot;,\n  &quot;category&quot;: [\n    {\n      &quot;coding&quot;: [\n        {\n          &quot;system&quot;: &quot;http://terminology.hl7.org/CodeSystem/observation-category&quot;,\n          &quot;code&quot;: &quot;laboratory&quot;,\n          &quot;display&quot;: &quot;Laboratory&quot;\n        }\n      ]\n    }\n  ],\n  &quot;code&quot;: {\n    &quot;coding&quot;: [\n      {\n        &quot;system&quot;: &quot;http://hl7.org/fhir/uv/genomics-reporting/CodeSystem/tbd-codes&quot;,\n        &quot;code&quot;: &quot;effect-transporter-function&quot;,\n        &quot;display&quot;: &quot;effect-transporter-function&quot;\n      }\n    ]\n  },\n  &quot;subject&quot;: {\n    &quot;reference&quot;: &quot;urn:uuid:53875482-ee58-41c5-97bf-4af5c1b5bbcd&quot;\n  },\n  &quot;performer&quot;: [\n    {\n      &quot;reference&quot;: &quot;urn:uuid:feb714c7-2910-4d38-91da-dfcdb10271d8&quot;\n    }\n  ],\n  &quot;valueCodeableConcept&quot;: {\n    &quot;text&quot;: &quot;Intermediate function&quot;\n  },\n  &quot;derivedFrom&quot;: [\n    {\n      &quot;reference&quot;: &quot;urn:uuid:a047ece6-f8fc-4f6e-984b-e8d8f2389743&quot;\n    }\n  ],\n  &quot;component&quot;: [\n    {\n      &quot;extension&quot;: [\n        {\n          &quot;url&quot;: &quot;http://hl7.org/fhir/uv/genomics-reporting/StructureDefinition/RelatedArtifact&quot;,\n          &quot;valueRelatedArtifact&quot;: {\n            &quot;type&quot;: &quot;justification&quot;,\n            &quot;url&quot;: &quot;https://cpicpgx.org/guidelines/guideline-for-simvastatin-and-slco1b1/&quot;\n          }\n        }\n      ],\n      &quot;code&quot;: {\n        &quot;coding&quot;: [\n          {\n            &quot;system&quot;: &quot;http://loinc.org&quot;,\n            &quot;code&quot;: &quot;51963-7&quot;,\n            &quot;display&quot;: &quot;Medication assessed&quot;\n          }\n        ]\n      },\n      &quot;valueCodeableConcept&quot;: {\n        &quot;coding&quot;: [\n          {\n            &quot;system&quot;: &quot;http://ncimeta.nci.nih.gov&quot;,\n            &quot;code&quot;: &quot;C0074554&quot;,\n            &quot;display&quot;: &quot;simvastatin&quot;\n          }\n        ]\n      }\n    }\n  ]\n}</div>"
        },
        "extension": [
          {
            "url": "http://namingsystem.org/fhir/StructureDefinition/interpretation-summary-text",
            "valueString": "This individual is heterozygous for the rs4149056 T/C allele in the SLCO1B1 gene.  This genotype information can be used by patients and clinicians as part of the shared decision-making process for simvastatin and other drugs affected by SLCO1B1. Based on the genotype result, this patient is predicted to have intermediate SLCO1B1 function. This patient may be at risk for an adverse response to medications that are affected by SLCO1B1. To avoid an untoward drug response, dose adjustments may be necessary for medications affected by SLCO1B1. If simvastatin is prescribed to a patient with intermediate SLCO1B1 function, there is an increased risk for developing simvastatin-associated myopathy; such patients may need a lower starting dose of simvastatin or an alternate statin agent. Refer to current guidelines for dosage and recommendations at https://cpicpgx.org/guidelines/guideline-for-simvastatin-and-slco1b1/."
          }
        ],
        "status": "final",
        "category": [
          {
            "coding": [
              {
                "system": "http://terminology.hl7.org/CodeSystem/observation-category",
                "code": "laboratory",
                "display": "Laboratory"
              }
            ]
          }
        ],
        "code": {
          "coding": [
            {
              "system": "http://hl7.org/fhir/uv/genomics-reporting/CodeSystem/tbd-codes",
              "code": "effect-transporter-function",
              "display": "effect-transporter-function"
            }
          ]
        },
        "subject": {
          "reference": "urn:uuid:53875482-ee58-41c5-97bf-4af5c1b5bbcd"
        },
        "performer": [
          {
            "reference": "urn:uuid:feb714c7-2910-4d38-91da-dfcdb10271d8"
          }
        ],
        "valueCodeableConcept": {
          "text": "Intermediate function"
        },
        "derivedFrom": [
          {
            "reference": "urn:uuid:a047ece6-f8fc-4f6e-984b-e8d8f2389743"
          }
        ],
        "component": [
          {
            "extension": [
              {
                "url": "http://hl7.org/fhir/uv/genomics-reporting/StructureDefinition/RelatedArtifact",
                "valueRelatedArtifact": {
                  "type": "justification",
                  "url": "https://cpicpgx.org/guidelines/guideline-for-simvastatin-and-slco1b1/"
                }
              }
            ],
            "code": {
              "coding": [
                {
                  "system": "http://loinc.org",
                  "code": "51963-7",
                  "display": "Medication assessed"
                }
              ]
            },
            "valueCodeableConcept": {
              "coding": [
                {
                  "system": "http://ncimeta.nci.nih.gov",
                  "code": "C0074554",
                  "display": "simvastatin"
                }
              ]
            }
          }
        ]
      },
      "request": {
        "method": "POST",
        "url": "Observation"
      }
    },
    {
      "fullUrl": "urn:uuid:cb90b7fd-2d69-411e-9e01-3704b868b367",
      "resource": {
        "resourceType": "Observation",
        "meta": {
          "profile": [
            "http://hl7.org/fhir/uv/genomics-reporting/StructureDefinition/medication-metabolism"
          ]
        },
        "language": "en-US",
        "text": {
          "status": "generated",
          "div": "<div xmlns=\"http://www.w3.org/1999/xhtml\">{\n  &quot;resourceType&quot;: &quot;Observation&quot;,\n  &quot;meta&quot;: {\n    &quot;profile&quot;: [\n      &quot;http://hl7.org/fhir/uv/genomics-reporting/StructureDefinition/medication-metabolism&quot;\n    ]\n  },\n  &quot;language&quot;: &quot;en-US&quot;,\n  &quot;extension&quot;: [\n    {\n      &quot;url&quot;: &quot;http://namingsystem.org/fhir/StructureDefinition/interpretation-summary-text&quot;,\n      &quot;valueString&quot;: &quot;This individual is homozygous for the normal high activity allele of the TPMT gene.  Decreased TPMT gene activity is associated with toxicity and myelosuppression in response to thiopurines, and this genotype information can be used by patients and clinicians as part of the shared decision-making process for initiating treatment.  Based on the genotype result, this patient is predicted to have normal TPMT function. Individuals with this diplotype are expected to have a normal response to mercaptopurine, azathioprine and thioguanine. A normal dose of thiopurine and adjustment following the disease-specific guidelines is recommended. Refer to current guidelines for dosage and recommendations for each specific thiopurine drug at https://cpicpgx.org/guidelines/guideline-for-thiopurines-and-tpmt/.&quot;\n    }\n  ],\n  &quot;status&quot;: &quot;final&quot;,\n  &quot;category&quot;: [\n    {\n      &quot;coding&quot;: [\n        {\n          &quot;system&quot;: &quot;http://terminology.hl7.org/CodeSystem/observation-category&quot;,\n          &quot;code&quot;: &quot;laboratory&quot;,\n          &quot;display&quot;: &quot;Laboratory&quot;\n        }\n      ]\n    }\n  ],\n  &quot;code&quot;: {\n    &quot;coding&quot;: [\n      {\n        &quot;system&quot;: &quot;http://loinc.org&quot;,\n        &quot;code&quot;: &quot;53040-2&quot;,\n        &quot;display&quot;: &quot;Genetic variation's effect on drug metabolism&quot;\n      }\n    ]\n  },\n  &quot;subject&quot;: {\n    &quot;reference&quot;: &quot;urn:uuid:53875482-ee58-41c5-97bf-4af5c1b5bbcd&quot;\n  },\n  &quot;performer&quot;: [\n    {\n      &quot;reference&quot;: &quot;urn:uuid:feb714c7-2910-4d38-91da-dfcdb10271d8&quot;\n    }\n  ],\n  &quot;valueCodeableConcept&quot;: {\n    &quot;text&quot;: &quot;High activity&quot;\n  },\n  &quot;derivedFrom&quot;: [\n    {\n      &quot;reference&quot;: &quot;urn:uuid:5521c33b-9d28-4b49-a52e-3bdd8d3bfebd&quot;\n    }\n  ],\n  &quot;component&quot;: [\n    {\n      &quot;extension&quot;: [\n        {\n          &quot;url&quot;: &quot;http://hl7.org/fhir/uv/genomics-reporting/StructureDefinition/RelatedArtifact&quot;,\n          &quot;valueRelatedArtifact&quot;: {\n            &quot;type&quot;: &quot;justification&quot;,\n            &quot;url&quot;: &quot;https://cpicpgx.org/guidelines/guideline-for-thiopurines-and-tpmt/&quot;\n          }\n        }\n      ],\n      &quot;code&quot;: {\n        &quot;coding&quot;: [\n          {\n            &quot;system&quot;: &quot;http://loinc.org&quot;,\n            &quot;code&quot;: &quot;51963-7&quot;,\n            &quot;display&quot;: &quot;Medication assessed&quot;\n          }\n        ]\n      },\n      &quot;valueCodeableConcept&quot;: {\n        &quot;coding&quot;: [\n          {\n            &quot;system&quot;: &quot;http://ncimeta.nci.nih.gov&quot;,\n            &quot;code&quot;: &quot;C0004482&quot;,\n            &quot;display&quot;: &quot;azathioprine&quot;\n          }\n        ]\n      }\n    },\n    {\n      &quot;extension&quot;: [\n        {\n          &quot;url&quot;: &quot;http://hl7.org/fhir/uv/genomics-reporting/StructureDefinition/RelatedArtifact&quot;,\n          &quot;valueRelatedArtifact&quot;: {\n            &quot;type&quot;: &quot;justification&quot;,\n            &quot;url&quot;: &quot;https://cpicpgx.org/guidelines/guideline-for-thiopurines-and-tpmt/&quot;\n          }\n        }\n      ],\n      &quot;code&quot;: {\n        &quot;coding&quot;: [\n          {\n            &quot;system&quot;: &quot;http://loinc.org&quot;,\n            &quot;code&quot;: &quot;51963-7&quot;,\n            &quot;display&quot;: &quot;Medication assessed&quot;\n          }\n        ]\n      },\n      &quot;valueCodeableConcept&quot;: {\n        &quot;coding&quot;: [\n          {\n            &quot;system&quot;: &quot;http://ncimeta.nci.nih.gov&quot;,\n            &quot;code&quot;: &quot;C0000618&quot;,\n            &quot;display&quot;: &quot;mercaptopurine&quot;\n          }\n        ]\n      }\n    },\n    {\n      &quot;extension&quot;: [\n        {\n          &quot;url&quot;: &quot;http://hl7.org/fhir/uv/genomics-reporting/StructureDefinition/RelatedArtifact&quot;,\n          &quot;valueRelatedArtifact&quot;: {\n            &quot;type&quot;: &quot;justification&quot;,\n            &quot;url&quot;: &quot;https://cpicpgx.org/guidelines/guideline-for-thiopurines-and-tpmt/&quot;\n          }\n        }\n      ],\n      &quot;code&quot;: {\n        &quot;coding&quot;: [\n          {\n            &quot;system&quot;: &quot;http://loinc.org&quot;,\n            &quot;code&quot;: &quot;51963-7&quot;,\n            &quot;display&quot;: &quot;Medication assessed&quot;\n          }\n        ]\n      },\n      &quot;valueCodeableConcept&quot;: {\n        &quot;coding&quot;: [\n          {\n            &quot;system&quot;: &quot;http://ncimeta.nci.nih.gov&quot;,\n            &quot;code&quot;: &quot;C0039902&quot;,\n            &quot;display&quot;: &quot;thioguanine&quot;\n          }\n        ]\n      }\n    }\n  ]\n}</div>"
        },
        "extension": [
          {
            "url": "http://namingsystem.org/fhir/StructureDefinition/interpretation-summary-text",
            "valueString": "This individual is homozygous for the normal high activity allele of the TPMT gene.  Decreased TPMT gene activity is associated with toxicity and myelosuppression in response to thiopurines, and this genotype information can be used by patients and clinicians as part of the shared decision-making process for initiating treatment.  Based on the genotype result, this patient is predicted to have normal TPMT function. Individuals with this diplotype are expected to have a normal response to mercaptopurine, azathioprine and thioguanine. A normal dose of thiopurine and adjustment following the disease-specific guidelines is recommended. Refer to current guidelines for dosage and recommendations for each specific thiopurine drug at https://cpicpgx.org/guidelines/guideline-for-thiopurines-and-tpmt/."
          }
        ],
        "status": "final",
        "category": [
          {
            "coding": [
              {
                "system": "http://terminology.hl7.org/CodeSystem/observation-category",
                "code": "laboratory",
                "display": "Laboratory"
              }
            ]
          }
        ],
        "code": {
          "coding": [
            {
              "system": "http://loinc.org",
              "code": "53040-2",
              "display": "Genetic variation's effect on drug metabolism"
            }
          ]
        },
        "subject": {
          "reference": "urn:uuid:53875482-ee58-41c5-97bf-4af5c1b5bbcd"
        },
        "performer": [
          {
            "reference": "urn:uuid:feb714c7-2910-4d38-91da-dfcdb10271d8"
          }
        ],
        "valueCodeableConcept": {
          "text": "High activity"
        },
        "derivedFrom": [
          {
            "reference": "urn:uuid:5521c33b-9d28-4b49-a52e-3bdd8d3bfebd"
          }
        ],
        "component": [
          {
            "extension": [
              {
                "url": "http://hl7.org/fhir/uv/genomics-reporting/StructureDefinition/RelatedArtifact",
                "valueRelatedArtifact": {
                  "type": "justification",
                  "url": "https://cpicpgx.org/guidelines/guideline-for-thiopurines-and-tpmt/"
                }
              }
            ],
            "code": {
              "coding": [
                {
                  "system": "http://loinc.org",
                  "code": "51963-7",
                  "display": "Medication assessed"
                }
              ]
            },
            "valueCodeableConcept": {
              "coding": [
                {
                  "system": "http://ncimeta.nci.nih.gov",
                  "code": "C0004482",
                  "display": "azathioprine"
                }
              ]
            }
          },
          {
            "extension": [
              {
                "url": "http://hl7.org/fhir/uv/genomics-reporting/StructureDefinition/RelatedArtifact",
                "valueRelatedArtifact": {
                  "type": "justification",
                  "url": "https://cpicpgx.org/guidelines/guideline-for-thiopurines-and-tpmt/"
                }
              }
            ],
            "code": {
              "coding": [
                {
                  "system": "http://loinc.org",
                  "code": "51963-7",
                  "display": "Medication assessed"
                }
              ]
            },
            "valueCodeableConcept": {
              "coding": [
                {
                  "system": "http://ncimeta.nci.nih.gov",
                  "code": "C0000618",
                  "display": "mercaptopurine"
                }
              ]
            }
          },
          {
            "extension": [
              {
                "url": "http://hl7.org/fhir/uv/genomics-reporting/StructureDefinition/RelatedArtifact",
                "valueRelatedArtifact": {
                  "type": "justification",
                  "url": "https://cpicpgx.org/guidelines/guideline-for-thiopurines-and-tpmt/"
                }
              }
            ],
            "code": {
              "coding": [
                {
                  "system": "http://loinc.org",
                  "code": "51963-7",
                  "display": "Medication assessed"
                }
              ]
            },
            "valueCodeableConcept": {
              "coding": [
                {
                  "system": "http://ncimeta.nci.nih.gov",
                  "code": "C0039902",
                  "display": "thioguanine"
                }
              ]
            }
          }
        ]
      },
      "request": {
        "method": "POST",
        "url": "Observation"
      }
    },
    {
      "fullUrl": "urn:uuid:ce35914c-1363-44f4-a67d-77ddb37e7533",
      "resource": {
        "resourceType": "Observation",
        "meta": {
          "profile": [
            "http://hl7.org/fhir/uv/genomics-reporting/StructureDefinition/medication-metabolism"
          ]
        },
        "language": "en-US",
        "text": {
          "status": "generated",
          "div": "<div xmlns=\"http://www.w3.org/1999/xhtml\">{\n  &quot;resourceType&quot;: &quot;Observation&quot;,\n  &quot;meta&quot;: {\n    &quot;profile&quot;: [\n      &quot;http://hl7.org/fhir/uv/genomics-reporting/StructureDefinition/medication-metabolism&quot;\n    ]\n  },\n  &quot;language&quot;: &quot;en-US&quot;,\n  &quot;extension&quot;: [\n    {\n      &quot;url&quot;: &quot;http://namingsystem.org/fhir/StructureDefinition/interpretation-summary-text&quot;,\n      &quot;valueString&quot;: &quot;This individual is homozygous for the normal allele for the CYP2C9 gene. Based on the genotype result, this patient is predicted to have normal CYP2C9 function.This individual is also heterozygous for the variant allele for the VKORC1 gene. Expression level of the VKORC1 gene is associated with warfarin sensitivity. Based on the genotype result, this patient is predicted to have medium sensitivity to warfarin.&quot;\n    }\n  ],\n  &quot;status&quot;: &quot;final&quot;,\n  &quot;category&quot;: [\n    {\n      &quot;coding&quot;: [\n        {\n          &quot;system&quot;: &quot;http://terminology.hl7.org/CodeSystem/observation-category&quot;,\n          &quot;code&quot;: &quot;laboratory&quot;,\n          &quot;display&quot;: &quot;Laboratory&quot;\n        }\n      ]\n    }\n  ],\n  &quot;code&quot;: {\n    &quot;coding&quot;: [\n      {\n        &quot;system&quot;: &quot;http://loinc.org&quot;,\n        &quot;code&quot;: &quot;53040-2&quot;,\n        &quot;display&quot;: &quot;Genetic variation's effect on drug metabolism&quot;\n      }\n    ]\n  },\n  &quot;subject&quot;: {\n    &quot;reference&quot;: &quot;urn:uuid:53875482-ee58-41c5-97bf-4af5c1b5bbcd&quot;\n  },\n  &quot;performer&quot;: [\n    {\n      &quot;reference&quot;: &quot;urn:uuid:feb714c7-2910-4d38-91da-dfcdb10271d8&quot;\n    }\n  ],\n  &quot;valueCodeableConcept&quot;: {\n    &quot;text&quot;: &quot;Extensive metabolizer&quot;\n  },\n  &quot;derivedFrom&quot;: [\n    {\n      &quot;reference&quot;: &quot;urn:uuid:ad76cb53-d4d0-4b8b-b832-0e0610d3284d&quot;\n    },\n    {\n      &quot;reference&quot;: &quot;urn:uuid:f1fec459-fdb3-4ef0-b828-a4e543d6f390&quot;\n    }\n  ],\n  &quot;component&quot;: [\n    {\n      &quot;extension&quot;: [\n        {\n          &quot;url&quot;: &quot;http://hl7.org/fhir/uv/genomics-reporting/StructureDefinition/RelatedArtifact&quot;,\n          &quot;valueRelatedArtifact&quot;: {\n            &quot;type&quot;: &quot;justification&quot;,\n            &quot;url&quot;: &quot;https://cpicpgx.org/guidelines/guideline-for-warfarin-and-cyp2c9-and-vkorc1/&quot;\n          }\n        }\n      ],\n      &quot;code&quot;: {\n        &quot;coding&quot;: [\n          {\n            &quot;system&quot;: &quot;http://loinc.org&quot;,\n            &quot;code&quot;: &quot;51963-7&quot;,\n            &quot;display&quot;: &quot;Medication assessed&quot;\n          }\n        ]\n      },\n      &quot;valueCodeableConcept&quot;: {\n        &quot;coding&quot;: [\n          {\n            &quot;system&quot;: &quot;http://ncimeta.nci.nih.gov&quot;,\n            &quot;code&quot;: &quot;C0043031&quot;,\n            &quot;display&quot;: &quot;warfarin&quot;\n          }\n        ]\n      }\n    }\n  ]\n}</div>"
        },
        "extension": [
          {
            "url": "http://namingsystem.org/fhir/StructureDefinition/interpretation-summary-text",
            "valueString": "This individual is homozygous for the normal allele for the CYP2C9 gene. Based on the genotype result, this patient is predicted to have normal CYP2C9 function.This individual is also heterozygous for the variant allele for the VKORC1 gene. Expression level of the VKORC1 gene is associated with warfarin sensitivity. Based on the genotype result, this patient is predicted to have medium sensitivity to warfarin."
          }
        ],
        "status": "final",
        "category": [
          {
            "coding": [
              {
                "system": "http://terminology.hl7.org/CodeSystem/observation-category",
                "code": "laboratory",
                "display": "Laboratory"
              }
            ]
          }
        ],
        "code": {
          "coding": [
            {
              "system": "http://loinc.org",
              "code": "53040-2",
              "display": "Genetic variation's effect on drug metabolism"
            }
          ]
        },
        "subject": {
          "reference": "urn:uuid:53875482-ee58-41c5-97bf-4af5c1b5bbcd"
        },
        "performer": [
          {
            "reference": "urn:uuid:feb714c7-2910-4d38-91da-dfcdb10271d8"
          }
        ],
        "valueCodeableConcept": {
          "text": "Extensive metabolizer"
        },
        "derivedFrom": [
          {
            "reference": "urn:uuid:ad76cb53-d4d0-4b8b-b832-0e0610d3284d"
          },
          {
            "reference": "urn:uuid:f1fec459-fdb3-4ef0-b828-a4e543d6f390"
          }
        ],
        "component": [
          {
            "extension": [
              {
                "url": "http://hl7.org/fhir/uv/genomics-reporting/StructureDefinition/RelatedArtifact",
                "valueRelatedArtifact": {
                  "type": "justification",
                  "url": "https://cpicpgx.org/guidelines/guideline-for-warfarin-and-cyp2c9-and-vkorc1/"
                }
              }
            ],
            "code": {
              "coding": [
                {
                  "system": "http://loinc.org",
                  "code": "51963-7",
                  "display": "Medication assessed"
                }
              ]
            },
            "valueCodeableConcept": {
              "coding": [
                {
                  "system": "http://ncimeta.nci.nih.gov",
                  "code": "C0043031",
                  "display": "warfarin"
                }
              ]
            }
          }
        ]
      },
      "request": {
        "method": "POST",
        "url": "Observation"
      }
    },
    {
      "fullUrl": "urn:uuid:33436af6-790d-47d1-8a82-1315fe219256",
      "resource": {
        "resourceType": "Observation",
        "meta": {
          "profile": [
            "http://hl7.org/fhir/uv/genomics-reporting/StructureDefinition/genotype"
          ]
        },
        "language": "en-US",
        "text": {
          "status": "generated",
          "div": "<div xmlns=\"http://www.w3.org/1999/xhtml\">{\n  &quot;resourceType&quot;: &quot;Observation&quot;,\n  &quot;meta&quot;: {\n    &quot;profile&quot;: [\n      &quot;http://hl7.org/fhir/uv/genomics-reporting/StructureDefinition/genotype&quot;\n    ]\n  },\n  &quot;language&quot;: &quot;en-US&quot;,\n  &quot;basedOn&quot;: [\n    {\n      &quot;reference&quot;: &quot;urn:uuid:909636eb-0510-44b6-9bc6-e9f730726f7e&quot;\n    }\n  ],\n  &quot;status&quot;: &quot;final&quot;,\n  &quot;category&quot;: [\n    {\n      &quot;coding&quot;: [\n        {\n          &quot;system&quot;: &quot;http://terminology.hl7.org/CodeSystem/observation-category&quot;,\n          &quot;code&quot;: &quot;laboratory&quot;,\n          &quot;display&quot;: &quot;Laboratory&quot;\n        }\n      ]\n    }\n  ],\n  &quot;code&quot;: {\n    &quot;coding&quot;: [\n      {\n        &quot;system&quot;: &quot;http://loinc.org&quot;,\n        &quot;code&quot;: &quot;84413-4&quot;,\n        &quot;display&quot;: &quot;genotype display name&quot;\n      }\n    ]\n  },\n  &quot;subject&quot;: {\n    &quot;reference&quot;: &quot;urn:uuid:53875482-ee58-41c5-97bf-4af5c1b5bbcd&quot;\n  },\n  &quot;performer&quot;: [\n    {\n      &quot;reference&quot;: &quot;urn:uuid:feb714c7-2910-4d38-91da-dfcdb10271d8&quot;\n    }\n  ],\n  &quot;valueCodeableConcept&quot;: {\n    &quot;text&quot;: &quot;*1/*1&quot;\n  },\n  &quot;specimen&quot;: {\n    &quot;reference&quot;: &quot;urn:uuid:b2adc29b-175d-4037-85b7-0159d955d9da&quot;\n  },\n  &quot;component&quot;: [\n    {\n      &quot;code&quot;: {\n        &quot;coding&quot;: [\n          {\n            &quot;system&quot;: &quot;http://loinc.org&quot;,\n            &quot;code&quot;: &quot;48018-6&quot;,\n            &quot;display&quot;: &quot;Gene studied [ID]&quot;\n          }\n        ]\n      },\n      &quot;valueCodeableConcept&quot;: {\n        &quot;coding&quot;: [\n          {\n            &quot;system&quot;: &quot;http://www.genenames.org/geneId&quot;,\n            &quot;code&quot;: &quot;HGNC:2621&quot;,\n            &quot;display&quot;: &quot;CYP2C19&quot;\n          }\n        ]\n      }\n    }\n  ]\n}</div>"
        },
        "basedOn": [
          {
            "reference": "urn:uuid:909636eb-0510-44b6-9bc6-e9f730726f7e"
          }
        ],
        "status": "final",
        "category": [
          {
            "coding": [
              {
                "system": "http://terminology.hl7.org/CodeSystem/observation-category",
                "code": "laboratory",
                "display": "Laboratory"
              }
            ]
          }
        ],
        "code": {
          "coding": [
            {
              "system": "http://loinc.org",
              "code": "84413-4",
              "display": "genotype display name"
            }
          ]
        },
        "subject": {
          "reference": "urn:uuid:53875482-ee58-41c5-97bf-4af5c1b5bbcd"
        },
        "performer": [
          {
            "reference": "urn:uuid:feb714c7-2910-4d38-91da-dfcdb10271d8"
          }
        ],
        "valueCodeableConcept": {
          "text": "*1/*1"
        },
        "specimen": {
          "reference": "urn:uuid:b2adc29b-175d-4037-85b7-0159d955d9da"
        },
        "component": [
          {
            "code": {
              "coding": [
                {
                  "system": "http://loinc.org",
                  "code": "48018-6",
                  "display": "Gene studied [ID]"
                }
              ]
            },
            "valueCodeableConcept": {
              "coding": [
                {
                  "system": "http://www.genenames.org/geneId",
                  "code": "HGNC:2621",
                  "display": "CYP2C19"
                }
              ]
            }
          }
        ]
      },
      "request": {
        "method": "POST",
        "url": "Observation"
      }
    },
    {
      "fullUrl": "urn:uuid:77fc9e0b-a5ef-4259-9505-1449fcb8b9d2",
      "resource": {
        "resourceType": "Observation",
        "meta": {
          "profile": [
            "http://hl7.org/fhir/uv/genomics-reporting/StructureDefinition/genotype"
          ]
        },
        "language": "en-US",
        "text": {
          "status": "generated",
          "div": "<div xmlns=\"http://www.w3.org/1999/xhtml\">{\n  &quot;resourceType&quot;: &quot;Observation&quot;,\n  &quot;meta&quot;: {\n    &quot;profile&quot;: [\n      &quot;http://hl7.org/fhir/uv/genomics-reporting/StructureDefinition/genotype&quot;\n    ]\n  },\n  &quot;language&quot;: &quot;en-US&quot;,\n  &quot;basedOn&quot;: [\n    {\n      &quot;reference&quot;: &quot;urn:uuid:909636eb-0510-44b6-9bc6-e9f730726f7e&quot;\n    }\n  ],\n  &quot;status&quot;: &quot;final&quot;,\n  &quot;category&quot;: [\n    {\n      &quot;coding&quot;: [\n        {\n          &quot;system&quot;: &quot;http://terminology.hl7.org/CodeSystem/observation-category&quot;,\n          &quot;code&quot;: &quot;laboratory&quot;,\n          &quot;display&quot;: &quot;Laboratory&quot;\n        }\n      ]\n    }\n  ],\n  &quot;code&quot;: {\n    &quot;coding&quot;: [\n      {\n        &quot;system&quot;: &quot;http://loinc.org&quot;,\n        &quot;code&quot;: &quot;84413-4&quot;,\n        &quot;display&quot;: &quot;genotype display name&quot;\n      }\n    ]\n  },\n  &quot;subject&quot;: {\n    &quot;reference&quot;: &quot;urn:uuid:53875482-ee58-41c5-97bf-4af5c1b5bbcd&quot;\n  },\n  &quot;performer&quot;: [\n    {\n      &quot;reference&quot;: &quot;urn:uuid:feb714c7-2910-4d38-91da-dfcdb10271d8&quot;\n    }\n  ],\n  &quot;valueCodeableConcept&quot;: {\n    &quot;text&quot;: &quot;*1/*2A&quot;\n  },\n  &quot;specimen&quot;: {\n    &quot;reference&quot;: &quot;urn:uuid:b2adc29b-175d-4037-85b7-0159d955d9da&quot;\n  },\n  &quot;component&quot;: [\n    {\n      &quot;code&quot;: {\n        &quot;coding&quot;: [\n          {\n            &quot;system&quot;: &quot;http://loinc.org&quot;,\n            &quot;code&quot;: &quot;48018-6&quot;,\n            &quot;display&quot;: &quot;Gene studied [ID]&quot;\n          }\n        ]\n      },\n      &quot;valueCodeableConcept&quot;: {\n        &quot;coding&quot;: [\n          {\n            &quot;system&quot;: &quot;http://www.genenames.org/geneId&quot;,\n            &quot;code&quot;: &quot;HGNC:3012&quot;,\n            &quot;display&quot;: &quot;DPYD&quot;\n          }\n        ]\n      }\n    }\n  ]\n}</div>"
        },
        "basedOn": [
          {
            "reference": "urn:uuid:909636eb-0510-44b6-9bc6-e9f730726f7e"
          }
        ],
        "status": "final",
        "category": [
          {
            "coding": [
              {
                "system": "http://terminology.hl7.org/CodeSystem/observation-category",
                "code": "laboratory",
                "display": "Laboratory"
              }
            ]
          }
        ],
        "code": {
          "coding": [
            {
              "system": "http://loinc.org",
              "code": "84413-4",
              "display": "genotype display name"
            }
          ]
        },
        "subject": {
          "reference": "urn:uuid:53875482-ee58-41c5-97bf-4af5c1b5bbcd"
        },
        "performer": [
          {
            "reference": "urn:uuid:feb714c7-2910-4d38-91da-dfcdb10271d8"
          }
        ],
        "valueCodeableConcept": {
          "text": "*1/*2A"
        },
        "specimen": {
          "reference": "urn:uuid:b2adc29b-175d-4037-85b7-0159d955d9da"
        },
        "component": [
          {
            "code": {
              "coding": [
                {
                  "system": "http://loinc.org",
                  "code": "48018-6",
                  "display": "Gene studied [ID]"
                }
              ]
            },
            "valueCodeableConcept": {
              "coding": [
                {
                  "system": "http://www.genenames.org/geneId",
                  "code": "HGNC:3012",
                  "display": "DPYD"
                }
              ]
            }
          }
        ]
      },
      "request": {
        "method": "POST",
        "url": "Observation"
      }
    },
    {
      "fullUrl": "urn:uuid:81e2cb5c-f6e3-48f5-9fd1-ae9b2afbda78",
      "resource": {
        "resourceType": "Observation",
        "meta": {
          "profile": [
            "http://hl7.org/fhir/uv/genomics-reporting/StructureDefinition/genotype"
          ]
        },
        "language": "en-US",
        "text": {
          "status": "generated",
          "div": "<div xmlns=\"http://www.w3.org/1999/xhtml\">{\n  &quot;resourceType&quot;: &quot;Observation&quot;,\n  &quot;meta&quot;: {\n    &quot;profile&quot;: [\n      &quot;http://hl7.org/fhir/uv/genomics-reporting/StructureDefinition/genotype&quot;\n    ]\n  },\n  &quot;language&quot;: &quot;en-US&quot;,\n  &quot;basedOn&quot;: [\n    {\n      &quot;reference&quot;: &quot;urn:uuid:909636eb-0510-44b6-9bc6-e9f730726f7e&quot;\n    }\n  ],\n  &quot;status&quot;: &quot;final&quot;,\n  &quot;category&quot;: [\n    {\n      &quot;coding&quot;: [\n        {\n          &quot;system&quot;: &quot;http://terminology.hl7.org/CodeSystem/observation-category&quot;,\n          &quot;code&quot;: &quot;laboratory&quot;,\n          &quot;display&quot;: &quot;Laboratory&quot;\n        }\n      ]\n    }\n  ],\n  &quot;code&quot;: {\n    &quot;coding&quot;: [\n      {\n        &quot;system&quot;: &quot;http://loinc.org&quot;,\n        &quot;code&quot;: &quot;84413-4&quot;,\n        &quot;display&quot;: &quot;genotype display name&quot;\n      }\n    ]\n  },\n  &quot;subject&quot;: {\n    &quot;reference&quot;: &quot;urn:uuid:53875482-ee58-41c5-97bf-4af5c1b5bbcd&quot;\n  },\n  &quot;performer&quot;: [\n    {\n      &quot;reference&quot;: &quot;urn:uuid:feb714c7-2910-4d38-91da-dfcdb10271d8&quot;\n    }\n  ],\n  &quot;valueCodeableConcept&quot;: {\n    &quot;text&quot;: &quot;T/T&quot;\n  },\n  &quot;specimen&quot;: {\n    &quot;reference&quot;: &quot;urn:uuid:b2adc29b-175d-4037-85b7-0159d955d9da&quot;\n  },\n  &quot;component&quot;: [\n    {\n      &quot;code&quot;: {\n        &quot;coding&quot;: [\n          {\n            &quot;system&quot;: &quot;http://loinc.org&quot;,\n            &quot;code&quot;: &quot;48018-6&quot;,\n            &quot;display&quot;: &quot;Gene studied [ID]&quot;\n          }\n        ]\n      },\n      &quot;valueCodeableConcept&quot;: {\n        &quot;coding&quot;: [\n          {\n            &quot;system&quot;: &quot;http://www.genenames.org/geneId&quot;,\n            &quot;code&quot;: &quot;HGNC:18365&quot;,\n            &quot;display&quot;: &quot;IFNL3&quot;\n          }\n        ]\n      }\n    }\n  ]\n}</div>"
        },
        "basedOn": [
          {
            "reference": "urn:uuid:909636eb-0510-44b6-9bc6-e9f730726f7e"
          }
        ],
        "status": "final",
        "category": [
          {
            "coding": [
              {
                "system": "http://terminology.hl7.org/CodeSystem/observation-category",
                "code": "laboratory",
                "display": "Laboratory"
              }
            ]
          }
        ],
        "code": {
          "coding": [
            {
              "system": "http://loinc.org",
              "code": "84413-4",
              "display": "genotype display name"
            }
          ]
        },
        "subject": {
          "reference": "urn:uuid:53875482-ee58-41c5-97bf-4af5c1b5bbcd"
        },
        "performer": [
          {
            "reference": "urn:uuid:feb714c7-2910-4d38-91da-dfcdb10271d8"
          }
        ],
        "valueCodeableConcept": {
          "text": "T/T"
        },
        "specimen": {
          "reference": "urn:uuid:b2adc29b-175d-4037-85b7-0159d955d9da"
        },
        "component": [
          {
            "code": {
              "coding": [
                {
                  "system": "http://loinc.org",
                  "code": "48018-6",
                  "display": "Gene studied [ID]"
                }
              ]
            },
            "valueCodeableConcept": {
              "coding": [
                {
                  "system": "http://www.genenames.org/geneId",
                  "code": "HGNC:18365",
                  "display": "IFNL3"
                }
              ]
            }
          }
        ]
      },
      "request": {
        "method": "POST",
        "url": "Observation"
      }
    },
    {
      "fullUrl": "urn:uuid:a047ece6-f8fc-4f6e-984b-e8d8f2389743",
      "resource": {
        "resourceType": "Observation",
        "meta": {
          "profile": [
            "http://hl7.org/fhir/uv/genomics-reporting/StructureDefinition/genotype"
          ]
        },
        "language": "en-US",
        "text": {
          "status": "generated",
          "div": "<div xmlns=\"http://www.w3.org/1999/xhtml\">{\n  &quot;resourceType&quot;: &quot;Observation&quot;,\n  &quot;meta&quot;: {\n    &quot;profile&quot;: [\n      &quot;http://hl7.org/fhir/uv/genomics-reporting/StructureDefinition/genotype&quot;\n    ]\n  },\n  &quot;language&quot;: &quot;en-US&quot;,\n  &quot;basedOn&quot;: [\n    {\n      &quot;reference&quot;: &quot;urn:uuid:909636eb-0510-44b6-9bc6-e9f730726f7e&quot;\n    }\n  ],\n  &quot;status&quot;: &quot;final&quot;,\n  &quot;category&quot;: [\n    {\n      &quot;coding&quot;: [\n        {\n          &quot;system&quot;: &quot;http://terminology.hl7.org/CodeSystem/observation-category&quot;,\n          &quot;code&quot;: &quot;laboratory&quot;,\n          &quot;display&quot;: &quot;Laboratory&quot;\n        }\n      ]\n    }\n  ],\n  &quot;code&quot;: {\n    &quot;coding&quot;: [\n      {\n        &quot;system&quot;: &quot;http://loinc.org&quot;,\n        &quot;code&quot;: &quot;84413-4&quot;,\n        &quot;display&quot;: &quot;genotype display name&quot;\n      }\n    ]\n  },\n  &quot;subject&quot;: {\n    &quot;reference&quot;: &quot;urn:uuid:53875482-ee58-41c5-97bf-4af5c1b5bbcd&quot;\n  },\n  &quot;performer&quot;: [\n    {\n      &quot;reference&quot;: &quot;urn:uuid:feb714c7-2910-4d38-91da-dfcdb10271d8&quot;\n    }\n  ],\n  &quot;valueCodeableConcept&quot;: {\n    &quot;text&quot;: &quot;T/C&quot;\n  },\n  &quot;specimen&quot;: {\n    &quot;reference&quot;: &quot;urn:uuid:b2adc29b-175d-4037-85b7-0159d955d9da&quot;\n  },\n  &quot;component&quot;: [\n    {\n      &quot;code&quot;: {\n        &quot;coding&quot;: [\n          {\n            &quot;system&quot;: &quot;http://loinc.org&quot;,\n            &quot;code&quot;: &quot;48018-6&quot;,\n            &quot;display&quot;: &quot;Gene studied [ID]&quot;\n          }\n        ]\n      },\n      &quot;valueCodeableConcept&quot;: {\n        &quot;coding&quot;: [\n          {\n            &quot;system&quot;: &quot;http://www.genenames.org/geneId&quot;,\n            &quot;code&quot;: &quot;HGNC:10959&quot;,\n            &quot;display&quot;: &quot;SLCO1B1&quot;\n          }\n        ]\n      }\n    }\n  ]\n}</div>"
        },
        "basedOn": [
          {
            "reference": "urn:uuid:909636eb-0510-44b6-9bc6-e9f730726f7e"
          }
        ],
        "status": "final",
        "category": [
          {
            "coding": [
              {
                "system": "http://terminology.hl7.org/CodeSystem/observation-category",
                "code": "laboratory",
                "display": "Laboratory"
              }
            ]
          }
        ],
        "code": {
          "coding": [
            {
              "system": "http://loinc.org",
              "code": "84413-4",
              "display": "genotype display name"
            }
          ]
        },
        "subject": {
          "reference": "urn:uuid:53875482-ee58-41c5-97bf-4af5c1b5bbcd"
        },
        "performer": [
          {
            "reference": "urn:uuid:feb714c7-2910-4d38-91da-dfcdb10271d8"
          }
        ],
        "valueCodeableConcept": {
          "text": "T/C"
        },
        "specimen": {
          "reference": "urn:uuid:b2adc29b-175d-4037-85b7-0159d955d9da"
        },
        "component": [
          {
            "code": {
              "coding": [
                {
                  "system": "http://loinc.org",
                  "code": "48018-6",
                  "display": "Gene studied [ID]"
                }
              ]
            },
            "valueCodeableConcept": {
              "coding": [
                {
                  "system": "http://www.genenames.org/geneId",
                  "code": "HGNC:10959",
                  "display": "SLCO1B1"
                }
              ]
            }
          }
        ]
      },
      "request": {
        "method": "POST",
        "url": "Observation"
      }
    },
    {
      "fullUrl": "urn:uuid:5521c33b-9d28-4b49-a52e-3bdd8d3bfebd",
      "resource": {
        "resourceType": "Observation",
        "meta": {
          "profile": [
            "http://hl7.org/fhir/uv/genomics-reporting/StructureDefinition/genotype"
          ]
        },
        "language": "en-US",
        "text": {
          "status": "generated",
          "div": "<div xmlns=\"http://www.w3.org/1999/xhtml\">{\n  &quot;resourceType&quot;: &quot;Observation&quot;,\n  &quot;meta&quot;: {\n    &quot;profile&quot;: [\n      &quot;http://hl7.org/fhir/uv/genomics-reporting/StructureDefinition/genotype&quot;\n    ]\n  },\n  &quot;language&quot;: &quot;en-US&quot;,\n  &quot;basedOn&quot;: [\n    {\n      &quot;reference&quot;: &quot;urn:uuid:909636eb-0510-44b6-9bc6-e9f730726f7e&quot;\n    }\n  ],\n  &quot;status&quot;: &quot;final&quot;,\n  &quot;category&quot;: [\n    {\n      &quot;coding&quot;: [\n        {\n          &quot;system&quot;: &quot;http://terminology.hl7.org/CodeSystem/observation-category&quot;,\n          &quot;code&quot;: &quot;laboratory&quot;,\n          &quot;display&quot;: &quot;Laboratory&quot;\n        }\n      ]\n    }\n  ],\n  &quot;code&quot;: {\n    &quot;coding&quot;: [\n      {\n        &quot;system&quot;: &quot;http://loinc.org&quot;,\n        &quot;code&quot;: &quot;84413-4&quot;,\n        &quot;display&quot;: &quot;genotype display name&quot;\n      }\n    ]\n  },\n  &quot;subject&quot;: {\n    &quot;reference&quot;: &quot;urn:uuid:53875482-ee58-41c5-97bf-4af5c1b5bbcd&quot;\n  },\n  &quot;performer&quot;: [\n    {\n      &quot;reference&quot;: &quot;urn:uuid:feb714c7-2910-4d38-91da-dfcdb10271d8&quot;\n    }\n  ],\n  &quot;valueCodeableConcept&quot;: {\n    &quot;text&quot;: &quot;*1/*1&quot;\n  },\n  &quot;specimen&quot;: {\n    &quot;reference&quot;: &quot;urn:uuid:b2adc29b-175d-4037-85b7-0159d955d9da&quot;\n  },\n  &quot;component&quot;: [\n    {\n      &quot;code&quot;: {\n        &quot;coding&quot;: [\n          {\n            &quot;system&quot;: &quot;http://loinc.org&quot;,\n            &quot;code&quot;: &quot;48018-6&quot;,\n            &quot;display&quot;: &quot;Gene studied [ID]&quot;\n          }\n        ]\n      },\n      &quot;valueCodeableConcept&quot;: {\n        &quot;coding&quot;: [\n          {\n            &quot;system&quot;: &quot;http://www.genenames.org/geneId&quot;,\n            &quot;code&quot;: &quot;HGNC:12014&quot;,\n            &quot;display&quot;: &quot;TPMT&quot;\n          }\n        ]\n      }\n    }\n  ]\n}</div>"
        },
        "basedOn": [
          {
            "reference": "urn:uuid:909636eb-0510-44b6-9bc6-e9f730726f7e"
          }
        ],
        "status": "final",
        "category": [
          {
            "coding": [
              {
                "system": "http://terminology.hl7.org/CodeSystem/observation-category",
                "code": "laboratory",
                "display": "Laboratory"
              }
            ]
          }
        ],
        "code": {
          "coding": [
            {
              "system": "http://loinc.org",
              "code": "84413-4",
              "display": "genotype display name"
            }
          ]
        },
        "subject": {
          "reference": "urn:uuid:53875482-ee58-41c5-97bf-4af5c1b5bbcd"
        },
        "performer": [
          {
            "reference": "urn:uuid:feb714c7-2910-4d38-91da-dfcdb10271d8"
          }
        ],
        "valueCodeableConcept": {
          "text": "*1/*1"
        },
        "specimen": {
          "reference": "urn:uuid:b2adc29b-175d-4037-85b7-0159d955d9da"
        },
        "component": [
          {
            "code": {
              "coding": [
                {
                  "system": "http://loinc.org",
                  "code": "48018-6",
                  "display": "Gene studied [ID]"
                }
              ]
            },
            "valueCodeableConcept": {
              "coding": [
                {
                  "system": "http://www.genenames.org/geneId",
                  "code": "HGNC:12014",
                  "display": "TPMT"
                }
              ]
            }
          }
        ]
      },
      "request": {
        "method": "POST",
        "url": "Observation"
      }
    },
    {
      "fullUrl": "urn:uuid:ad76cb53-d4d0-4b8b-b832-0e0610d3284d",
      "resource": {
        "resourceType": "Observation",
        "meta": {
          "profile": [
            "http://hl7.org/fhir/uv/genomics-reporting/StructureDefinition/genotype"
          ]
        },
        "language": "en-US",
        "text": {
          "status": "generated",
          "div": "<div xmlns=\"http://www.w3.org/1999/xhtml\">{\n  &quot;resourceType&quot;: &quot;Observation&quot;,\n  &quot;meta&quot;: {\n    &quot;profile&quot;: [\n      &quot;http://hl7.org/fhir/uv/genomics-reporting/StructureDefinition/genotype&quot;\n    ]\n  },\n  &quot;language&quot;: &quot;en-US&quot;,\n  &quot;basedOn&quot;: [\n    {\n      &quot;reference&quot;: &quot;urn:uuid:909636eb-0510-44b6-9bc6-e9f730726f7e&quot;\n    }\n  ],\n  &quot;status&quot;: &quot;final&quot;,\n  &quot;category&quot;: [\n    {\n      &quot;coding&quot;: [\n        {\n          &quot;system&quot;: &quot;http://terminology.hl7.org/CodeSystem/observation-category&quot;,\n          &quot;code&quot;: &quot;laboratory&quot;,\n          &quot;display&quot;: &quot;Laboratory&quot;\n        }\n      ]\n    }\n  ],\n  &quot;code&quot;: {\n    &quot;coding&quot;: [\n      {\n        &quot;system&quot;: &quot;http://loinc.org&quot;,\n        &quot;code&quot;: &quot;84413-4&quot;,\n        &quot;display&quot;: &quot;genotype display name&quot;\n      }\n    ]\n  },\n  &quot;subject&quot;: {\n    &quot;reference&quot;: &quot;urn:uuid:53875482-ee58-41c5-97bf-4af5c1b5bbcd&quot;\n  },\n  &quot;performer&quot;: [\n    {\n      &quot;reference&quot;: &quot;urn:uuid:feb714c7-2910-4d38-91da-dfcdb10271d8&quot;\n    }\n  ],\n  &quot;valueCodeableConcept&quot;: {\n    &quot;text&quot;: &quot;*1/*1&quot;\n  },\n  &quot;specimen&quot;: {\n    &quot;reference&quot;: &quot;urn:uuid:b2adc29b-175d-4037-85b7-0159d955d9da&quot;\n  },\n  &quot;component&quot;: [\n    {\n      &quot;code&quot;: {\n        &quot;coding&quot;: [\n          {\n            &quot;system&quot;: &quot;http://loinc.org&quot;,\n            &quot;code&quot;: &quot;48018-6&quot;,\n            &quot;display&quot;: &quot;Gene studied [ID]&quot;\n          }\n        ]\n      },\n      &quot;valueCodeableConcept&quot;: {\n        &quot;coding&quot;: [\n          {\n            &quot;system&quot;: &quot;http://www.genenames.org/geneId&quot;,\n            &quot;code&quot;: &quot;HGNC:2623&quot;,\n            &quot;display&quot;: &quot;CYP2C9&quot;\n          }\n        ]\n      }\n    }\n  ]\n}</div>"
        },
        "basedOn": [
          {
            "reference": "urn:uuid:909636eb-0510-44b6-9bc6-e9f730726f7e"
          }
        ],
        "status": "final",
        "category": [
          {
            "coding": [
              {
                "system": "http://terminology.hl7.org/CodeSystem/observation-category",
                "code": "laboratory",
                "display": "Laboratory"
              }
            ]
          }
        ],
        "code": {
          "coding": [
            {
              "system": "http://loinc.org",
              "code": "84413-4",
              "display": "genotype display name"
            }
          ]
        },
        "subject": {
          "reference": "urn:uuid:53875482-ee58-41c5-97bf-4af5c1b5bbcd"
        },
        "performer": [
          {
            "reference": "urn:uuid:feb714c7-2910-4d38-91da-dfcdb10271d8"
          }
        ],
        "valueCodeableConcept": {
          "text": "*1/*1"
        },
        "specimen": {
          "reference": "urn:uuid:b2adc29b-175d-4037-85b7-0159d955d9da"
        },
        "component": [
          {
            "code": {
              "coding": [
                {
                  "system": "http://loinc.org",
                  "code": "48018-6",
                  "display": "Gene studied [ID]"
                }
              ]
            },
            "valueCodeableConcept": {
              "coding": [
                {
                  "system": "http://www.genenames.org/geneId",
                  "code": "HGNC:2623",
                  "display": "CYP2C9"
                }
              ]
            }
          }
        ]
      },
      "request": {
        "method": "POST",
        "url": "Observation"
      }
    },
    {
      "fullUrl": "urn:uuid:f1fec459-fdb3-4ef0-b828-a4e543d6f390",
      "resource": {
        "resourceType": "Observation",
        "meta": {
          "profile": [
            "http://hl7.org/fhir/uv/genomics-reporting/StructureDefinition/genotype"
          ]
        },
        "language": "en-US",
        "text": {
          "status": "generated",
          "div": "<div xmlns=\"http://www.w3.org/1999/xhtml\">{\n  &quot;resourceType&quot;: &quot;Observation&quot;,\n  &quot;meta&quot;: {\n    &quot;profile&quot;: [\n      &quot;http://hl7.org/fhir/uv/genomics-reporting/StructureDefinition/genotype&quot;\n    ]\n  },\n  &quot;language&quot;: &quot;en-US&quot;,\n  &quot;basedOn&quot;: [\n    {\n      &quot;reference&quot;: &quot;urn:uuid:909636eb-0510-44b6-9bc6-e9f730726f7e&quot;\n    }\n  ],\n  &quot;status&quot;: &quot;final&quot;,\n  &quot;category&quot;: [\n    {\n      &quot;coding&quot;: [\n        {\n          &quot;system&quot;: &quot;http://terminology.hl7.org/CodeSystem/observation-category&quot;,\n          &quot;code&quot;: &quot;laboratory&quot;,\n          &quot;display&quot;: &quot;Laboratory&quot;\n        }\n      ]\n    }\n  ],\n  &quot;code&quot;: {\n    &quot;coding&quot;: [\n      {\n        &quot;system&quot;: &quot;http://loinc.org&quot;,\n        &quot;code&quot;: &quot;84413-4&quot;,\n        &quot;display&quot;: &quot;genotype display name&quot;\n      }\n    ]\n  },\n  &quot;subject&quot;: {\n    &quot;reference&quot;: &quot;urn:uuid:53875482-ee58-41c5-97bf-4af5c1b5bbcd&quot;\n  },\n  &quot;performer&quot;: [\n    {\n      &quot;reference&quot;: &quot;urn:uuid:feb714c7-2910-4d38-91da-dfcdb10271d8&quot;\n    }\n  ],\n  &quot;valueCodeableConcept&quot;: {\n    &quot;text&quot;: &quot;C/T&quot;\n  },\n  &quot;specimen&quot;: {\n    &quot;reference&quot;: &quot;urn:uuid:b2adc29b-175d-4037-85b7-0159d955d9da&quot;\n  },\n  &quot;component&quot;: [\n    {\n      &quot;code&quot;: {\n        &quot;coding&quot;: [\n          {\n            &quot;system&quot;: &quot;http://loinc.org&quot;,\n            &quot;code&quot;: &quot;48018-6&quot;,\n            &quot;display&quot;: &quot;Gene studied [ID]&quot;\n          }\n        ]\n      },\n      &quot;valueCodeableConcept&quot;: {\n        &quot;coding&quot;: [\n          {\n            &quot;system&quot;: &quot;http://www.genenames.org/geneId&quot;,\n            &quot;code&quot;: &quot;HGNC:23663&quot;,\n            &quot;display&quot;: &quot;VKORC1&quot;\n          }\n        ]\n      }\n    }\n  ]\n}</div>"
        },
        "basedOn": [
          {
            "reference": "urn:uuid:909636eb-0510-44b6-9bc6-e9f730726f7e"
          }
        ],
        "status": "final",
        "category": [
          {
            "coding": [
              {
                "system": "http://terminology.hl7.org/CodeSystem/observation-category",
                "code": "laboratory",
                "display": "Laboratory"
              }
            ]
          }
        ],
        "code": {
          "coding": [
            {
              "system": "http://loinc.org",
              "code": "84413-4",
              "display": "genotype display name"
            }
          ]
        },
        "subject": {
          "reference": "urn:uuid:53875482-ee58-41c5-97bf-4af5c1b5bbcd"
        },
        "performer": [
          {
            "reference": "urn:uuid:feb714c7-2910-4d38-91da-dfcdb10271d8"
          }
        ],
        "valueCodeableConcept": {
          "text": "C/T"
        },
        "specimen": {
          "reference": "urn:uuid:b2adc29b-175d-4037-85b7-0159d955d9da"
        },
        "component": [
          {
            "code": {
              "coding": [
                {
                  "system": "http://loinc.org",
                  "code": "48018-6",
                  "display": "Gene studied [ID]"
                }
              ]
            },
            "valueCodeableConcept": {
              "coding": [
                {
                  "system": "http://www.genenames.org/geneId",
                  "code": "HGNC:23663",
                  "display": "VKORC1"
                }
              ]
            }
          }
        ]
      },
      "request": {
        "method": "POST",
        "url": "Observation"
      }
    },
    {
      "fullUrl": "urn:uuid:edd62e04-7335-4785-b596-1e2d3612d6a5",
      "resource": {
        "resourceType": "Practitioner",
        "language": "en-US",
        "text": {
          "status": "generated",
          "div": "<div xmlns=\"http://www.w3.org/1999/xhtml\">{\n  &quot;resourceType&quot;: &quot;Practitioner&quot;,\n  &quot;language&quot;: &quot;en-US&quot;,\n  &quot;identifier&quot;: [\n    {\n      &quot;type&quot;: {\n        &quot;coding&quot;: [\n          {\n            &quot;system&quot;: &quot;http://terminology.hl7.org/CodeSystem/v2-0203&quot;,\n            &quot;code&quot;: &quot;NPI&quot;,\n            &quot;display&quot;: &quot;National provider identifier&quot;\n          }\n        ]\n      },\n      &quot;system&quot;: &quot;http://hl7.org/fhir/sid/us-npi&quot;,\n      &quot;value&quot;: &quot;1045097250479&quot;\n    }\n  ],\n  &quot;name&quot;: [\n    {\n      &quot;use&quot;: &quot;usual&quot;,\n      &quot;family&quot;: &quot;Doe&quot;,\n      &quot;given&quot;: [\n        &quot;John R&quot;\n      ],\n      &quot;suffix&quot;: [\n        &quot;M.D., FACMG&quot;\n      ]\n    }\n  ],\n  &quot;address&quot;: [\n    {\n      &quot;line&quot;: [\n        &quot;1111 TestAddress St&quot;\n      ],\n      &quot;city&quot;: &quot;Houston&quot;,\n      &quot;state&quot;: &quot;TX&quot;,\n      &quot;postalCode&quot;: &quot;77030&quot;,\n      &quot;country&quot;: &quot;USA&quot;\n    }\n  ],\n  &quot;qualification&quot;: [\n    {\n      &quot;identifier&quot;: [\n        {\n          &quot;type&quot;: {\n            &quot;coding&quot;: [\n              {\n                &quot;system&quot;: &quot;http://terminology.hl7.org/CodeSystem/v2-0203&quot;,\n                &quot;code&quot;: &quot;NPI&quot;,\n                &quot;display&quot;: &quot;National provider identifier&quot;\n              }\n            ]\n          },\n          &quot;system&quot;: &quot;http://hl7.org/fhir/sid/us-npi&quot;,\n          &quot;value&quot;: &quot;1045097250479&quot;\n        }\n      ],\n      &quot;code&quot;: {\n        &quot;coding&quot;: [\n          {\n            &quot;system&quot;: &quot;http://terminology.hl7.org/CodeSystem/v2-2.7-0360&quot;,\n            &quot;code&quot;: &quot;M.D.&quot;,\n            &quot;display&quot;: &quot;Doctor of Medicine&quot;\n          }\n        ]\n      }\n    },\n    {\n      &quot;code&quot;: {\n        &quot;text&quot;: &quot;ABMGG Certified Molecular Geneticist&quot;\n      }\n    }\n  ]\n}</div>"
        },
        "identifier": [
          {
            "type": {
              "coding": [
                {
                  "system": "http://terminology.hl7.org/CodeSystem/v2-0203",
                  "code": "NPI",
                  "display": "National provider identifier"
                }
              ]
            },
            "system": "http://hl7.org/fhir/sid/us-npi",
            "value": "1045097250479"
          }
        ],
        "name": [
          {
            "use": "usual",
            "family": "Doe",
            "given": [
              "John R"
            ],
            "suffix": [
              "M.D., FACMG"
            ]
          }
        ],
        "address": [
          {
            "line": [
              "1111 TestAddress St"
            ],
            "city": "Houston",
            "state": "TX",
            "postalCode": "77030",
            "country": "USA"
          }
        ],
        "qualification": [
          {
            "identifier": [
              {
                "type": {
                  "coding": [
                    {
                      "system": "http://terminology.hl7.org/CodeSystem/v2-0203",
                      "code": "NPI",
                      "display": "National provider identifier"
                    }
                  ]
                },
                "system": "http://hl7.org/fhir/sid/us-npi",
                "value": "1045097250479"
              }
            ],
            "code": {
              "coding": [
                {
                  "system": "http://terminology.hl7.org/CodeSystem/v2-2.7-0360",
                  "code": "M.D.",
                  "display": "Doctor of Medicine"
                }
              ]
            }
          },
          {
            "code": {
              "text": "ABMGG Certified Molecular Geneticist"
            }
          }
        ]
      },
      "request": {
        "method": "POST",
        "url": "Practitioner"
      }
    },
    {
      "fullUrl": "urn:uuid:f6e27e7d-8278-45c6-8b0f-f1082cdac7c4",
      "resource": {
        "resourceType": "Practitioner",
        "language": "en-US",
        "text": {
          "status": "generated",
          "div": "<div xmlns=\"http://www.w3.org/1999/xhtml\">{\n  &quot;resourceType&quot;: &quot;Practitioner&quot;,\n  &quot;language&quot;: &quot;en-US&quot;,\n  &quot;identifier&quot;: [\n    {\n      &quot;type&quot;: {\n        &quot;coding&quot;: [\n          {\n            &quot;system&quot;: &quot;http://terminology.hl7.org/CodeSystem/v2-0203&quot;,\n            &quot;code&quot;: &quot;NPI&quot;,\n            &quot;display&quot;: &quot;National provider identifier&quot;\n          }\n        ]\n      },\n      &quot;system&quot;: &quot;http://hl7.org/fhir/sid/us-npi&quot;,\n      &quot;value&quot;: &quot;1045097250478&quot;\n    }\n  ],\n  &quot;name&quot;: [\n    {\n      &quot;use&quot;: &quot;usual&quot;,\n      &quot;family&quot;: &quot;Doe&quot;,\n      &quot;given&quot;: [\n        &quot;Jane M&quot;\n      ],\n      &quot;suffix&quot;: [\n        &quot;M.D., FACMG&quot;\n      ]\n    }\n  ],\n  &quot;address&quot;: [\n    {\n      &quot;line&quot;: [\n        &quot;1111 TestAddress St&quot;\n      ],\n      &quot;city&quot;: &quot;Houston&quot;,\n      &quot;state&quot;: &quot;TX&quot;,\n      &quot;postalCode&quot;: &quot;77030&quot;,\n      &quot;country&quot;: &quot;USA&quot;\n    }\n  ],\n  &quot;qualification&quot;: [\n    {\n      &quot;identifier&quot;: [\n        {\n          &quot;type&quot;: {\n            &quot;coding&quot;: [\n              {\n                &quot;system&quot;: &quot;http://terminology.hl7.org/CodeSystem/v2-0203&quot;,\n                &quot;code&quot;: &quot;NPI&quot;,\n                &quot;display&quot;: &quot;National provider identifier&quot;\n              }\n            ]\n          },\n          &quot;system&quot;: &quot;http://hl7.org/fhir/sid/us-npi&quot;,\n          &quot;value&quot;: &quot;1045097250478&quot;\n        }\n      ],\n      &quot;code&quot;: {\n        &quot;coding&quot;: [\n          {\n            &quot;system&quot;: &quot;http://terminology.hl7.org/CodeSystem/v2-2.7-0360&quot;,\n            &quot;code&quot;: &quot;M.D.&quot;,\n            &quot;display&quot;: &quot;Doctor of Medicine&quot;\n          }\n        ]\n      }\n    },\n    {\n      &quot;code&quot;: {\n        &quot;text&quot;: &quot;ABMGG Certified Molecular Geneticist&quot;\n      }\n    }\n  ]\n}</div>"
        },
        "identifier": [
          {
            "type": {
              "coding": [
                {
                  "system": "http://terminology.hl7.org/CodeSystem/v2-0203",
                  "code": "NPI",
                  "display": "National provider identifier"
                }
              ]
            },
            "system": "http://hl7.org/fhir/sid/us-npi",
            "value": "1045097250478"
          }
        ],
        "name": [
          {
            "use": "usual",
            "family": "Doe",
            "given": [
              "Jane M"
            ],
            "suffix": [
              "M.D., FACMG"
            ]
          }
        ],
        "address": [
          {
            "line": [
              "1111 TestAddress St"
            ],
            "city": "Houston",
            "state": "TX",
            "postalCode": "77030",
            "country": "USA"
          }
        ],
        "qualification": [
          {
            "identifier": [
              {
                "type": {
                  "coding": [
                    {
                      "system": "http://terminology.hl7.org/CodeSystem/v2-0203",
                      "code": "NPI",
                      "display": "National provider identifier"
                    }
                  ]
                },
                "system": "http://hl7.org/fhir/sid/us-npi",
                "value": "1045097250478"
              }
            ],
            "code": {
              "coding": [
                {
                  "system": "http://terminology.hl7.org/CodeSystem/v2-2.7-0360",
                  "code": "M.D.",
                  "display": "Doctor of Medicine"
                }
              ]
            }
          },
          {
            "code": {
              "text": "ABMGG Certified Molecular Geneticist"
            }
          }
        ]
      },
      "request": {
        "method": "POST",
        "url": "Practitioner"
      }
    },
    {
      "fullUrl": "urn:uuid:feb714c7-2910-4d38-91da-dfcdb10271d8",
      "resource": {
        "resourceType": "Organization",
        "meta": {
          "profile": [
            "http://hl7.org/fhir/us/core/StructureDefinition/us-core-organization"
          ]
        },
        "language": "en-US",
        "text": {
          "status": "generated",
          "div": "<div xmlns=\"http://www.w3.org/1999/xhtml\"><p><b>Generated Narrative with Details</b></p><p><b>id</b>: Human Genome Sequencing Center Clinical Laboratory</p><p>1111 TestAddress St  Houston  TX 77030</p><p>Phone: 111.111.1111  Fax: 111.111.1111  www.namingsystem.org  email: questions@namingsystem.org</p><p>CAP# 8000000 / CLIA# 45000AAR250</p></div>"
        },
        "identifier": [
          {
            "system": "urn:oid:XXXXXXXX",
            "value": "XXXXX"
          },
          {
            "system": "http://www.namingsystem.org",
            "value": "XXXXX"
          }
        ],
        "active": true,
        "name": "Human Genome Sequencing Center Clinical Laboratory",
        "telecom": [
          {
            "system": "phone",
            "value": "(+1) 111-111-1111"
          },
          {
            "system": "fax",
            "value": "(+1) 111-111-1111"
          },
          {
            "system": "url",
            "value": "https://www.test.edu/"
          },
          {
            "system": "email",
            "value": "questions@test.edu"
          }
        ],
        "address": [
          {
            "line": [
              "1111 TestAddress St"
            ],
            "city": "Houston",
            "state": "TX",
            "postalCode": "77030",
            "country": "USA"
          }
        ],
        "partOf": {
          "reference": "urn:uuid:dbfbfcc5-6735-4e7c-8038-95ae91088e88"
        }
      },
      "request": {
        "method": "POST",
        "url": "Organization"
      }
    },
    {
      "fullUrl": "urn:uuid:dbfbfcc5-6735-4e7c-8038-95ae91088e88",
      "resource": {
        "resourceType": "Organization",
        "language": "en-US",
        "text": {
          "status": "generated",
          "div": "<div xmlns=\"http://www.w3.org/1999/xhtml\"><p><b>Generated Narrative with Details</b></p><p><b>id</b>: Baylor College of Medicine</p><p>1111 TestAddress St  Houston  TX 77030</p><p>Phone: (111) 111-1111  https://www.test.edu/ </p></div>"
        },
        "active": true,
        "name": "Baylor College of Medicine",
        "telecom": [
          {
            "system": "phone",
            "value": "(+1) 111-111-1111"
          },
          {
            "system": "url",
            "value": "https://www.test.edu/"
          }
        ],
        "address": [
          {
            "line": [
              "1111 TestAddress St"
            ],
            "city": "Houston",
            "state": "TX",
            "postalCode": "77030",
            "country": "USA"
          }
        ]
      },
      "request": {
        "method": "POST",
        "url": "Organization"
      }
    },
    {
      "fullUrl": "urn:uuid:fb07fac6-c0a2-4e42-927f-ef262c482c3d",
      "resource": {
        "resourceType": "PractitionerRole",
        "language": "en-US",
        "text": {
          "status": "generated",
          "div": "<div xmlns=\"http://www.w3.org/1999/xhtml\">{\n  &quot;resourceType&quot;: &quot;PractitionerRole&quot;,\n  &quot;language&quot;: &quot;en-US&quot;,\n  &quot;practitioner&quot;: {\n    &quot;reference&quot;: &quot;urn:uuid:edd62e04-7335-4785-b596-1e2d3612d6a5&quot;\n  },\n  &quot;organization&quot;: {\n    &quot;reference&quot;: &quot;urn:uuid:feb714c7-2910-4d38-91da-dfcdb10271d8&quot;\n  },\n  &quot;code&quot;: [\n    {\n      &quot;coding&quot;: [\n        {\n          &quot;system&quot;: &quot;http://snomed.info/sct&quot;,\n          &quot;code&quot;: &quot;159141008&quot;,\n          &quot;display&quot;: &quot;Geneticist&quot;\n        }\n      ],\n      &quot;text&quot;: &quot;ABMGG Certified Molecular Geneticist, Assistant Laboratory Director&quot;\n    }\n  ]\n}</div>"
        },
        "practitioner": {
          "reference": "urn:uuid:edd62e04-7335-4785-b596-1e2d3612d6a5"
        },
        "organization": {
          "reference": "urn:uuid:feb714c7-2910-4d38-91da-dfcdb10271d8"
        },
        "code": [
          {
            "coding": [
              {
                "system": "http://snomed.info/sct",
                "code": "159141008",
                "display": "Geneticist"
              }
            ],
            "text": "ABMGG Certified Molecular Geneticist, Assistant Laboratory Director"
          }
        ]
      },
      "request": {
        "method": "POST",
        "url": "PractitionerRole"
      }
    },
    {
      "fullUrl": "urn:uuid:537dc732-4b76-4f5c-b425-964fff9838b5",
      "resource": {
        "resourceType": "PractitionerRole",
        "language": "en-US",
        "text": {
          "status": "generated",
          "div": "<div xmlns=\"http://www.w3.org/1999/xhtml\">{\n  &quot;resourceType&quot;: &quot;PractitionerRole&quot;,\n  &quot;language&quot;: &quot;en-US&quot;,\n  &quot;practitioner&quot;: {\n    &quot;reference&quot;: &quot;urn:uuid:f6e27e7d-8278-45c6-8b0f-f1082cdac7c4&quot;\n  },\n  &quot;organization&quot;: {\n    &quot;reference&quot;: &quot;urn:uuid:feb714c7-2910-4d38-91da-dfcdb10271d8&quot;\n  },\n  &quot;code&quot;: [\n    {\n      &quot;coding&quot;: [\n        {\n          &quot;system&quot;: &quot;http://snomed.info/sct&quot;,\n          &quot;code&quot;: &quot;159141008&quot;,\n          &quot;display&quot;: &quot;Geneticist&quot;\n        }\n      ],\n      &quot;text&quot;: &quot;ABMGG Certified Molecular Geneticist, Medical Director&quot;\n    }\n  ]\n}</div>"
        },
        "practitioner": {
          "reference": "urn:uuid:f6e27e7d-8278-45c6-8b0f-f1082cdac7c4"
        },
        "organization": {
          "reference": "urn:uuid:feb714c7-2910-4d38-91da-dfcdb10271d8"
        },
        "code": [
          {
            "coding": [
              {
                "system": "http://snomed.info/sct",
                "code": "159141008",
                "display": "Geneticist"
              }
            ],
            "text": "ABMGG Certified Molecular Geneticist, Medical Director"
          }
        ]
      },
      "request": {
        "method": "POST",
        "url": "PractitionerRole"
      }
    },
    {
      "fullUrl": "urn:uuid:d9797d6a-2fb8-497e-86ef-af668e36dba1",
      "resource": {
        "resourceType": "Task",
        "meta": {
          "profile": [
            "http://hl7.org/fhir/uv/genomics-reporting/StructureDefinition/task-rec-followup"
          ]
        },
        "language": "en-US",
        "text": {
          "status": "generated",
          "div": "<div xmlns=\"http://www.w3.org/1999/xhtml\">{\n  &quot;resourceType&quot;: &quot;Task&quot;,\n  &quot;meta&quot;: {\n    &quot;profile&quot;: [\n      &quot;http://hl7.org/fhir/uv/genomics-reporting/StructureDefinition/task-rec-followup&quot;\n    ]\n  },\n  &quot;language&quot;: &quot;en-US&quot;,\n  &quot;status&quot;: &quot;requested&quot;,\n  &quot;intent&quot;: &quot;proposal&quot;,\n  &quot;code&quot;: {\n    &quot;coding&quot;: [\n      {\n        &quot;system&quot;: &quot;http://loinc.org&quot;,\n        &quot;code&quot;: &quot;LA14020-4&quot;,\n        &quot;display&quot;: &quot;Genetic counseling recommended&quot;\n      }\n    ],\n    &quot;text&quot;: &quot;It is recommended that correlation of these findings with the clinical phenotype be performed. Genetic counseling for the patient and at-risk family members is recommended.&quot;\n  },\n  &quot;description&quot;: &quot;It is recommended that correlation of these findings with the clinical phenotype be performed. Genetic counseling for the patient and at-risk family members is recommended.&quot;,\n  &quot;for&quot;: {\n    &quot;reference&quot;: &quot;urn:uuid:53875482-ee58-41c5-97bf-4af5c1b5bbcd&quot;\n  },\n  &quot;reasonReference&quot;: {\n    &quot;reference&quot;: &quot;urn:uuid:4ebdde8a-3580-494c-ab74-96ac8905488d&quot;\n  }\n}</div>"
        },
        "status": "requested",
        "intent": "proposal",
        "code": {
          "coding": [
            {
              "system": "http://loinc.org",
              "code": "LA14020-4",
              "display": "Genetic counseling recommended"
            }
          ],
          "text": "It is recommended that correlation of these findings with the clinical phenotype be performed. Genetic counseling for the patient and at-risk family members is recommended."
        },
        "description": "It is recommended that correlation of these findings with the clinical phenotype be performed. Genetic counseling for the patient and at-risk family members is recommended.",
        "for": {
          "reference": "urn:uuid:53875482-ee58-41c5-97bf-4af5c1b5bbcd"
        },
        "reasonReference": {
          "reference": "urn:uuid:4ebdde8a-3580-494c-ab74-96ac8905488d"
        }
      },
      "request": {
        "method": "POST",
        "url": "Task"
      }
    },
    {
      "fullUrl": "urn:uuid:576fc9bb-6c0a-461c-a868-e2f193c668d4",
      "resource": {
        "resourceType": "PlanDefinition",
        "language": "en-US",
        "text": {
          "status": "generated",
          "div": "<div xmlns=\"http://www.w3.org/1999/xhtml\">{\n  &quot;resourceType&quot;: &quot;PlanDefinition&quot;,\n  &quot;language&quot;: &quot;en-US&quot;,\n  &quot;identifier&quot;: [\n    {\n      &quot;type&quot;: {\n        &quot;coding&quot;: [\n          {\n            &quot;system&quot;: &quot;http://terminology.hl7.org/CodeSystem/v2-0203&quot;,\n            &quot;code&quot;: &quot;FILL&quot;,\n            &quot;display&quot;: &quot;Filler Identifier&quot;\n          }\n        ]\n      },\n      &quot;system&quot;: &quot;https://namingsystem.org/lab-test-codes/&quot;,\n      &quot;value&quot;: &quot;eMERGE-Seq Panel Sequencing Report&quot;\n    }\n  ],\n  &quot;version&quot;: &quot;52_eMERGE-Seq&quot;,\n  &quot;title&quot;: &quot;eMERGE-Seq Panel Sequencing Report&quot;,\n  &quot;type&quot;: {\n    &quot;coding&quot;: [\n      {\n        &quot;system&quot;: &quot;http://terminology.hl7.org/CodeSystem/plan-definition-type&quot;,\n        &quot;code&quot;: &quot;protocol&quot;,\n        &quot;display&quot;: &quot;Protocol&quot;\n      }\n    ]\n  },\n  &quot;status&quot;: &quot;active&quot;,\n  &quot;description&quot;: &quot;This test interrogates the protein-coding and exon-splicing regions of 109 genes as well as 1551 single-nucleotide polymorphisms that may impact human health and disease. Clinical interpretation and reporting are provided for pathogenic and likely pathogenic variants for genes and single nucleotide polymorphisms as described in the methodology section.&quot;\n}</div>"
        },
        "identifier": [
          {
            "type": {
              "coding": [
                {
                  "system": "http://terminology.hl7.org/CodeSystem/v2-0203",
                  "code": "FILL",
                  "display": "Filler Identifier"
                }
              ]
            },
            "system": "https://namingsystem.org/lab-test-codes/",
            "value": "eMERGE-Seq Panel Sequencing Report"
          }
        ],
        "version": "52_eMERGE-Seq",
        "title": "eMERGE-Seq Panel Sequencing Report",
        "type": {
          "coding": [
            {
              "system": "http://terminology.hl7.org/CodeSystem/plan-definition-type",
              "code": "protocol",
              "display": "Protocol"
            }
          ]
        },
        "status": "active",
        "description": "This test interrogates the protein-coding and exon-splicing regions of 109 genes as well as 1551 single-nucleotide polymorphisms that may impact human health and disease. Clinical interpretation and reporting are provided for pathogenic and likely pathogenic variants for genes and single nucleotide polymorphisms as described in the methodology section.",
        "relatedArtifact": [
          {
            "type": "citation",
            "citation": "Illumina, Inc. (2011) Multiplexing Sample Preparation Guide (Part # 1005361 Rev. D). 2011."
          },
          {
            "type": "citation",
            "citation": "Roche NimbleGen, Inc. (2010) NimbleGen SeqCap EZ Exome Library SR User's Guide (Version 2.2)."
          },
          {
            "type": "citation",
            "citation": "Liang-Chu MM, Yu M, Haverty PM, Koeman J, Ziegle J, Lee M, Bourgon R, Neve RM. Human biosample authentication using the high-throughput, cost-effective SNPtrace(TM) system. PLoS One. 2015 Feb 25;10(2):e0116218."
          },
          {
            "type": "citation",
            "citation": "Reid JG, Carroll A, Veeraraghavan N, Dahdouli M, Sundquist A, English A, Bainbridge M, White S, Salerno W, Buhay C, Yu F, Muzny D, Daly R, Duyk G, Gibbs RA, Boerwinkle E. 2014. Launching genomics into the cloud: deployment of Mercury, a next generation sequence analysis pipeline. BMC bioinformatics, 15(1), p.1. PMID: 24475911."
          },
          {
            "type": "citation",
            "citation": "Li H. and Durbin R. (2009) Fast and accurate short read alignment with Burrows-Wheeler Transform. Bioinformatics, 25:1754-60. PMID:19451168."
          },
          {
            "type": "citation",
            "citation": "Richards S, Aziz N, Bale S, Bick D, Das S, Gastier-Foster J, Grody WW, Hegde M, Lyon E, Spector E, Voelkerding K, Rehm HL; ACMG Laboratory Quality Assurance Committee. Standards and guidelines for the interpretation of sequence variants: a joint consensus recommendation of the American College of Medical Genetics and Genomics and the Association for Molecular Pathology. Genetics in Medicine (2015) 17, 405-423. PMID: 25741868."
          }
        ],
        "action": [
          {
            "prefix": "1",
            "description": "1. eMERGE-Seq Version 2 NGS Panel: for the paired-end pre-capture library procedure, genome DNA is fragmented by sonicating genome DNA and ligating to the Illumina multiplexing PE adapters (reference 1).  The adapter-ligated DNA is then PCR amplified using primers with sequencing barcodes (indexes). For target enrichment capture procedure, the pre-capture library is enriched by hybridizing to biotin labeled in-solution probes&nbsp;(reference 2) at&nbsp; 56&deg;C for 16 - 19 hours.&nbsp; For massively parallel sequencing, the post-capture library DNA is subjected to sequence analysis on Illumina HiSeq platform for 100 bp paired-end reads. The following quality control metrics of the sequencing data are generally achieved: &gt;70% of reads aligned to target, &gt;99% target base covered at &gt;20X, &gt;98% target base covered at &gt;40X, average coverage of target bases &gt;200X. SNP concordance to SNPTrace genotype array: &gt;99%. This test may not provide detection of certain genes or portions of certain genes due to local sequence characteristics or the presence of closely related pseudogenes. Gross deletions or duplications, changes from repetitive sequences may not be accurately identified by this methodology. Genomic rearrangements cannot be detected by this assay."
          },
          {
            "prefix": "2",
            "description": "2. As a quality control measure, the individual's DNA is also analyzed by a SNP-array (Fluidigm SNPTrace panel (reference 3) ). The SNP data are compared with the NGS panel data to ensure correct sample identification and to assess sequencing quality."
          },
          {
            "prefix": "3",
            "description": "3. Data are analyzed by the Mercury 3.4 (reference 4) pipeline. The output data from Illumina HiSeq are converted from bcl file to FastQ file by Illumina bcl2fastq 1.8.3 software, and mapped to the hg19 human genome reference by the BWA program (reference 5). The variant calls are performed using Atlas-SNP and Atlas-indel developed in-house by BCM HGSC. Copy number variants were detected using Atlas-pcnv v0, developed in-house by the BCM HGSC. Variant annotations are performed using the Cassandra tool, developed in-house.  Neptune version $VERSION was used to match variants against curated variants in the VIP database version [2020-04-17-14-17-00.vip] and generate this report.**"
          },
          {
            "prefix": "4",
            "description": "4. The variants were interpreted according to ACMG guidelines (reference 6) and patient phenotypes.  Synonymous variants, intronic variants not affecting splicing site, and common benign variants are excluded from interpretation unless they were previously reported as pathogenic variants. Reviewed variants are added to the VIP database for inclusion on future reports.  It should be noted that the interpretation of the data is based on our current understanding of genes and variants at the time of reporting."
          },
          {
            "prefix": "5",
            "description": "Clinical interpretation and reporting are provided for pathogenic and likely pathogenic variants as requested by XXXXX Organization for the following 68 medically actionable genes: ACTA2, ACTC1, APC, APOB, BMPR1A, BRCA1, BRCA2, CACNA1A, CACNA1S, COL3A1, COL5A1, DSC2, DSG2, DSP, FBN1, GLA, HNF1A, HNF1B, KCNE1, KCNH2, KCNJ2, KCNQ1, LDLR, LMNA, MEN1, MLH1, MSH2, MSH6, MUTYH, MYBPC3, MYH11, MYH7, MYL2, MYL3, MYLK, NF2, OTC, PALB2, PCSK9, PKP2, PMS2, POLD1, POLE, PRKAG2, PTEN, RB1, RET, RYR1, RYR2, SCN5A, SDHAF2, SDHB, SDHC, SDHD, SMAD3, SMAD4, STK11, TGFBR1, TGFBR2, TMEM43, TNNI3, TNNT2, TP53, TPM1, TSC1, TSC2, VHL, WT1, the following non medically actionable genes: ANK2, ATM, ATP1A2, BMPR2, CACNA1C, CFH, CFTR, CHEK2, FLG, MC4R, MTHFR, NTRK1, SCN1A, SCN9A, SERPINA1, SLC2A10, TCF4, TCIRG1, TTR, TYK2, UMOD, VDR, the following medically actionable SNPs: rs77931234, rs387906225, rs79761867, rs386834233, rs113993962, rs397509431, rs6467, rs6025, rs80338898, rs1801175, rs1800562, rs28940579, rs61752717, rs193922376; and non medically actionable SNPs: rs151344623, rs76151636, rs111033258, rs786205104, rs786205103, rs147394623, rs121964990, rs121965064, rs121965063, rs104886456, rs201227603, rs74315447, rs61755320, rs724159981. For autosomal recessive disorders, only homozygous or biallelic variants will be returned. Variants in exon 3 of the FLG gene are not reported."
          },
          {
            "prefix": "6",
            "description": "5. Variants related to patient phenotypes are confirmed by Sanger sequencing if the variant has been observed and confirmed fewer than 5 times by our laboratory or the Baylor Genetics Laboratory. Sanger confirmation is noted in the 'Notes' section of the tables if performed."
          },
          {
            "prefix": "7",
            "description": "** The VIP variant database was developed in conjunction with Baylor Genetics and the Partners Healthcare Laboratory for Molecular Medicine."
          }
        ]
      },
      "request": {
        "method": "POST",
        "url": "PlanDefinition"
      }
    },
    {
      "resource": {
        "resourceType": "DiagnosticReport",
        "meta": {
          "profile": [
            "http://hl7.org/fhir/uv/genomics-reporting/StructureDefinition/diagnosticreport"
          ]
        },
        "language": "en-US",
        "text": {
          "status": "generated",
          "div": "<div xmlns=\"http://www.w3.org/1999/xhtml\">{\n  &quot;resourceType&quot;: &quot;DiagnosticReport&quot;,\n  &quot;meta&quot;: {\n    &quot;profile&quot;: [\n      &quot;http://hl7.org/fhir/uv/genomics-reporting/StructureDefinition/diagnosticreport&quot;\n    ]\n  },\n  &quot;language&quot;: &quot;en-US&quot;,\n  &quot;extension&quot;: [\n    {\n      &quot;url&quot;: &quot;http://namingsystem.org/fhir/StructureDefinition/test-disclaimer&quot;,\n      &quot;valueString&quot;: &quot;This test was developed and its performance determined by this laboratory. It has not been cleared or approved by U.S. Food and Drug Administration. Since FDA is not required for clinical use of this test, this laboratory has established and validated the test's accuracy and precision, pursuant to the requirement of CLIA '88. This laboratory is licensed and/or accredited under CLIA and CAP (CAP# 8000000 / CLIA# 4500000250).&quot;\n    },\n    {\n      &quot;url&quot;: &quot;http://hl7.org/fhir/uv/genomics-reporting/StructureDefinition/recommendedAction&quot;,\n      &quot;valueReference&quot;: {\n        &quot;reference&quot;: &quot;urn:uuid:d9797d6a-2fb8-497e-86ef-af668e36dba1&quot;\n      }\n    }\n  ],\n  &quot;identifier&quot;: [\n    {\n      &quot;type&quot;: {\n        &quot;coding&quot;: [\n          {\n            &quot;system&quot;: &quot;http://terminology.hl7.org/CodeSystem/v2-0203&quot;,\n            &quot;code&quot;: &quot;FILL&quot;,\n            &quot;display&quot;: &quot;Filler Identifier&quot;\n          }\n        ]\n      },\n      &quot;system&quot;: &quot;http://namingsystem.org/&quot;,\n      &quot;value&quot;: &quot;1587000005.75&quot;\n    }\n  ],\n  &quot;basedOn&quot;: [\n    {\n      &quot;reference&quot;: &quot;urn:uuid:909636eb-0510-44b6-9bc6-e9f730726f7e&quot;\n    }\n  ],\n  &quot;status&quot;: &quot;final&quot;,\n  &quot;category&quot;: [\n    {\n      &quot;coding&quot;: [\n        {\n          &quot;system&quot;: &quot;http://terminology.hl7.org/CodeSystem/v2-0074&quot;,\n          &quot;code&quot;: &quot;GE&quot;,\n          &quot;display&quot;: &quot;Genetics&quot;\n        },\n        {\n          &quot;system&quot;: &quot;http://terminology.hl7.org/CodeSystem/v2-0074&quot;,\n          &quot;code&quot;: &quot;LAB&quot;,\n          &quot;display&quot;: &quot;Laboratory&quot;\n        }\n      ]\n    }\n  ],\n  &quot;code&quot;: {\n    &quot;coding&quot;: [\n      {\n        &quot;system&quot;: &quot;http://loinc.org&quot;,\n        &quot;code&quot;: &quot;81247-9&quot;,\n        &quot;display&quot;: &quot;Master HL7 genetic variant reporting panel&quot;\n      }\n    ]\n  },\n  &quot;subject&quot;: {\n    &quot;reference&quot;: &quot;urn:uuid:53875482-ee58-41c5-97bf-4af5c1b5bbcd&quot;\n  },\n  &quot;performer&quot;: [\n    {\n      &quot;reference&quot;: &quot;urn:uuid:feb714c7-2910-4d38-91da-dfcdb10271d8&quot;\n    }\n  ],\n  &quot;resultsInterpreter&quot;: [\n    {\n      &quot;reference&quot;: &quot;urn:uuid:fb07fac6-c0a2-4e42-927f-ef262c482c3d&quot;\n    },\n    {\n      &quot;reference&quot;: &quot;urn:uuid:537dc732-4b76-4f5c-b425-964fff9838b5&quot;\n    }\n  ],\n  &quot;specimen&quot;: [\n    {\n      &quot;reference&quot;: &quot;urn:uuid:b2adc29b-175d-4037-85b7-0159d955d9da&quot;\n    }\n  ],\n  &quot;result&quot;: [\n    {\n      &quot;reference&quot;: &quot;urn:uuid:c9331b20-a9a7-4cab-9bb8-4309f70dc2d9&quot;\n    },\n    {\n      &quot;reference&quot;: &quot;urn:uuid:a65b515a-882f-49fd-bc06-68fbb8e15af9&quot;\n    },\n    {\n      &quot;reference&quot;: &quot;urn:uuid:ff768938-cbd7-4d17-a814-79d7ac339c21&quot;\n    },\n    {\n      &quot;reference&quot;: &quot;urn:uuid:ea58a1c6-0588-4c82-81ef-67a9c4bedef1&quot;\n    }\n  ]\n}</div>"
        },
        "extension": [
          {
            "url": "http://namingsystem.org/fhir/StructureDefinition/test-disclaimer",
            "valueString": "This test was developed and its performance determined by this laboratory. It has not been cleared or approved by U.S. Food and Drug Administration. Since FDA is not required for clinical use of this test, this laboratory has established and validated the test's accuracy and precision, pursuant to the requirement of CLIA '88. This laboratory is licensed and/or accredited under CLIA and CAP (CAP# 8000000 / CLIA# 4500000250)."
          },
          {
            "url": "http://hl7.org/fhir/uv/genomics-reporting/StructureDefinition/recommendedAction",
            "valueReference": {
              "reference": "urn:uuid:d9797d6a-2fb8-497e-86ef-af668e36dba1"
            }
          }
        ],
        "identifier": [
          {
            "type": {
              "coding": [
                {
                  "system": "http://terminology.hl7.org/CodeSystem/v2-0203",
                  "code": "FILL",
                  "display": "Filler Identifier"
                }
              ]
            },
            "system": "http://namingsystem.org/",
            "value": "1587000005.75"
          }
        ],
        "basedOn": [
          {
            "reference": "urn:uuid:909636eb-0510-44b6-9bc6-e9f730726f7e"
          }
        ],
        "status": "final",
        "category": [
          {
            "coding": [
              {
                "system": "http://terminology.hl7.org/CodeSystem/v2-0074",
                "code": "GE",
                "display": "Genetics"
              },
              {
                "system": "http://terminology.hl7.org/CodeSystem/v2-0074",
                "code": "LAB",
                "display": "Laboratory"
              }
            ]
          }
        ],
        "code": {
          "coding": [
            {
              "system": "http://loinc.org",
              "code": "81247-9",
              "display": "Master HL7 genetic variant reporting panel"
            }
          ]
        },
        "subject": {
          "reference": "urn:uuid:53875482-ee58-41c5-97bf-4af5c1b5bbcd"
        },
        "performer": [
          {
            "reference": "urn:uuid:feb714c7-2910-4d38-91da-dfcdb10271d8"
          }
        ],
        "resultsInterpreter": [
          {
            "reference": "urn:uuid:fb07fac6-c0a2-4e42-927f-ef262c482c3d"
          },
          {
            "reference": "urn:uuid:537dc732-4b76-4f5c-b425-964fff9838b5"
          }
        ],
        "specimen": [
          {
            "reference": "urn:uuid:b2adc29b-175d-4037-85b7-0159d955d9da"
          }
        ],
        "result": [
          {
            "reference": "urn:uuid:c9331b20-a9a7-4cab-9bb8-4309f70dc2d9"
          },
          {
            "reference": "urn:uuid:a65b515a-882f-49fd-bc06-68fbb8e15af9"
          },
          {
            "reference": "urn:uuid:ff768938-cbd7-4d17-a814-79d7ac339c21"
          },
          {
            "reference": "urn:uuid:ea58a1c6-0588-4c82-81ef-67a9c4bedef1"
          }
        ]
      },
      "request": {
        "method": "POST",
        "url": "DiagnosticReport"
      }
    }
  ]
}
